* Measurement data measured by REW V5.31.3
* Source: EXCL: Headset (USB-C to 3.5mm Headphone Jack Adapter), MICROPHONE (Master Volume), 0, volume: 0.750
* Format: 256k Log Swept Sine, 1 sweep at -12.0 dBFS with no timing reference
* Dated: May 15, 2025 10:57:33 PM
* REW Settings:
*  C-weighting compensation: Off
*  Target level: 75.0 dB
* Note: ; 
* Measurement: HD560s (worn) R7
* Smoothing: 1/6 octave
* Frequency Step: 96 ppo
* Start Frequency: 20.0 Hz
*
* Freq(Hz) SPL(dB) Phase(degrees)
20.187378 76.500 -105.0143
20.333664 76.533 -105.1658
20.481010 76.577 -105.3721
20.629424 76.630 -105.6309
20.778913 76.692 -105.9395
20.929486 76.759 -106.2941
21.081150 76.832 -106.6900
21.233912 76.908 -107.1218
21.387782 76.988 -107.5831
21.542767 77.071 -108.0670
21.698874 77.156 -108.5662
21.856113 77.243 -109.0731
22.014492 77.333 -109.5806
22.174018 77.424 -110.0816
22.334700 77.518 -110.5703
22.496546 77.614 -111.0415
22.659566 77.710 -111.4911
22.823766 77.807 -111.9163
22.989157 77.903 -112.3155
23.155745 77.997 -112.6882
23.323542 78.088 -113.0348
23.492554 78.174 -113.3566
23.662790 78.254 -113.6557
23.834261 78.327 -113.9346
24.006973 78.392 -114.1963
24.180938 78.448 -114.4441
24.356163 78.495 -114.6818
24.532658 78.532 -114.9133
24.710431 78.560 -115.1425
24.889493 78.580 -115.3737
25.069853 78.591 -115.6108
25.251519 78.596 -115.8578
25.434502 78.596 -116.1181
25.618811 78.591 -116.3947
25.804456 78.584 -116.6898
25.991445 78.576 -117.0048
26.179790 78.569 -117.3401
26.369500 78.563 -117.6952
26.560584 78.560 -118.0687
26.753053 78.561 -118.4584
26.946917 78.566 -118.8614
27.142185 78.575 -119.2745
27.338869 78.589 -119.6939
27.536977 78.607 -120.1160
27.736522 78.629 -120.5373
27.937512 78.653 -120.9545
28.139959 78.679 -121.3647
28.343872 78.706 -121.7657
28.549264 78.734 -122.1558
28.756143 78.762 -122.5341
28.964522 78.790 -122.9007
29.174411 78.817 -123.2565
29.385821 78.845 -123.6033
29.598763 78.872 -123.9435
29.813248 78.899 -124.2804
30.029287 78.928 -124.6175
30.246891 78.957 -124.9580
30.466073 78.990 -125.3050
30.686842 79.024 -125.6605
30.909212 79.062 -126.0256
31.133193 79.103 -126.3999
31.358797 79.147 -126.7820
31.586035 79.197 -127.1692
31.814921 79.250 -127.5583
32.045465 79.309 -127.9461
32.277680 79.374 -128.3298
32.511577 79.444 -128.7073
32.747169 79.519 -129.0781
32.984469 79.600 -129.4429
33.223488 79.686 -129.8037
33.464239 79.775 -130.1631
33.706735 79.867 -130.5243
33.950987 79.960 -130.8899
34.197010 80.052 -131.2619
34.444816 80.144 -131.6414
34.694417 80.232 -132.0283
34.945827 80.317 -132.4216
35.199059 80.399 -132.8202
35.454126 80.477 -133.2228
35.711041 80.552 -133.6288
35.969818 80.624 -134.0380
36.230470 80.693 -134.4505
36.493011 80.760 -134.8666
36.757455 80.825 -135.2857
37.023814 80.888 -135.7061
37.292104 80.948 -136.1249
37.562338 81.006 -136.5378
37.834530 81.060 -136.9400
38.108695 81.112 -137.3268
38.384846 81.162 -137.6949
38.662999 81.209 -138.0427
38.943167 81.256 -138.3712
39.225365 81.301 -138.6832
39.509608 81.346 -138.9832
39.795911 81.390 -139.2762
40.084289 81.434 -139.5666
40.374756 81.478 -139.8580
40.667328 81.521 -140.1524
40.962020 81.563 -140.4501
41.258848 81.603 -140.7505
41.557827 81.643 -141.0523
41.858972 81.680 -141.3537
42.162299 81.716 -141.6534
42.467824 81.750 -141.9506
42.775564 81.782 -142.2457
43.085533 81.813 -142.5401
43.397749 81.842 -142.8359
43.712227 81.870 -143.1355
44.028983 81.897 -143.4406
44.348036 81.923 -143.7514
44.669400 81.948 -144.0659
44.993093 81.972 -144.3799
45.319131 81.996 -144.6877
45.647532 82.019 -144.9831
45.978313 82.042 -145.2608
46.311491 82.065 -145.5172
46.647083 82.088 -145.7512
46.985107 82.111 -145.9633
47.325581 82.133 -146.1553
47.668521 82.154 -146.3295
48.013947 82.173 -146.4880
48.361876 82.190 -146.6330
48.712326 82.205 -146.7668
49.065315 82.218 -146.8927
49.420863 82.229 -147.0149
49.778987 82.239 -147.1383
50.139706 82.249 -147.2681
50.503039 82.259 -147.4090
50.869005 82.269 -147.5647
51.237623 82.279 -147.7372
51.608912 82.290 -147.9271
51.982891 82.302 -148.1331
52.359580 82.313 -148.3523
52.739000 82.324 -148.5814
53.121168 82.334 -148.8171
53.506106 82.343 -149.0570
53.893833 82.351 -149.3005
54.284370 82.358 -149.5487
54.677737 82.364 -149.8043
55.073955 82.369 -150.0708
55.473043 82.372 -150.3516
55.875024 82.374 -150.6496
56.279917 82.374 -150.9666
56.687745 82.370 -151.3039
57.098527 82.364 -151.6617
57.512287 82.356 -152.0388
57.929045 82.346 -152.4309
58.348822 82.336 -152.8303
58.771642 82.328 -153.2257
59.197525 82.327 -153.6039
59.626495 82.334 -153.9532
60.058573 82.353 -154.2665
60.493782 82.385 -154.5428
60.932145 82.429 -154.7862
61.373685 82.483 -155.0044
61.818424 82.544 -155.2058
62.266386 82.608 -155.3984
62.717593 82.673 -155.5896
63.172071 82.737 -155.7856
63.629842 82.800 -155.9912
64.090930 82.861 -156.2095
64.555359 82.919 -156.4412
65.023154 82.974 -156.6853
65.494339 83.026 -156.9397
65.968938 83.074 -157.2021
66.446976 83.119 -157.4701
66.928478 83.159 -157.7427
67.413469 83.197 -158.0198
67.901975 83.231 -158.3022
68.394021 83.263 -158.5912
68.889632 83.292 -158.8878
69.388835 83.319 -159.1922
69.891655 83.344 -159.5039
70.398118 83.367 -159.8215
70.908252 83.389 -160.1424
71.422083 83.409 -160.4639
71.939636 83.427 -160.7826
72.460941 83.443 -161.0961
72.986023 83.457 -161.4026
73.514909 83.469 -161.7016
74.047629 83.479 -161.9937
74.584208 83.487 -162.2798
75.124676 83.493 -162.5610
75.669061 83.496 -162.8385
76.217390 83.498 -163.1134
76.769692 83.498 -163.3864
77.325997 83.496 -163.6577
77.886333 83.492 -163.9269
78.450730 83.486 -164.1938
79.019216 83.479 -164.4575
79.591822 83.470 -164.7177
80.168577 83.460 -164.9741
80.749512 83.449 -165.2268
81.334656 83.437 -165.4763
81.924040 83.425 -165.7237
82.517696 83.412 -165.9700
83.115653 83.400 -166.2166
83.717943 83.387 -166.4645
84.324598 83.373 -166.7142
84.935649 83.359 -166.9656
85.551128 83.344 -167.2180
86.171066 83.328 -167.4703
86.795497 83.312 -167.7217
87.424453 83.295 -167.9715
88.057967 83.278 -168.2197
88.696071 83.260 -168.4665
89.338800 83.242 -168.7125
89.986185 83.223 -168.9580
90.638262 83.203 -169.2032
91.295065 83.183 -169.4481
91.956626 83.163 -169.6923
92.622982 83.142 -169.9352
93.294166 83.122 -170.1760
93.970214 83.101 -170.4138
94.651161 83.081 -170.6479
95.337042 83.060 -170.8782
96.027894 83.041 -171.1048
96.723752 83.021 -171.3283
97.424652 83.002 -171.5498
98.130631 82.984 -171.7700
98.841726 82.967 -171.9895
99.557974 82.951 -172.2085
100.279412 82.936 -172.4268
101.006078 82.921 -172.6442
101.738010 82.908 -172.8606
102.475245 82.895 -173.0759
103.217823 82.882 -173.2898
103.965782 82.870 -173.5017
104.719161 82.859 -173.7103
105.477999 82.847 -173.9142
106.242336 82.837 -174.1117
107.012212 82.826 -174.3021
107.787666 82.816 -174.4853
108.568740 82.806 -174.6623
109.355474 82.796 -174.8348
110.147909 82.787 -175.0043
110.946086 82.778 -175.1722
111.750047 82.769 -175.3391
112.559834 82.761 -175.5052
113.375489 82.754 -175.6705
114.197055 82.747 -175.8344
115.024574 82.742 -175.9962
115.858089 82.736 -176.1547
116.697645 82.732 -176.3088
117.543284 82.728 -176.4567
118.395051 82.725 -176.5965
119.252990 82.722 -176.7265
120.117147 82.720 -176.8454
120.987565 82.718 -176.9531
121.864291 82.716 -177.0515
122.747370 82.714 -177.1433
123.636848 82.712 -177.2323
124.532771 82.709 -177.3223
125.435187 82.706 -177.4170
126.344142 82.703 -177.5201
127.259684 82.698 -177.6345
128.181860 82.693 -177.7626
129.110718 82.686 -177.9056
130.046308 82.677 -178.0628
130.988677 82.665 -178.2315
131.937875 82.650 -178.4070
132.893951 82.631 -178.5835
133.856956 82.610 -178.7547
134.826938 82.585 -178.9160
135.803950 82.559 -179.0642
136.788041 82.531 -179.1983
137.779264 82.503 -179.3189
138.777669 82.474 -179.4277
139.783309 82.445 -179.5269
140.796237 82.416 -179.6187
141.816504 82.387 -179.7051
142.844165 82.358 -179.7876
143.879273 82.329 -179.8675
144.921881 82.299 -179.9455
145.972045 82.269 179.9777
147.029819 82.239 179.9018
148.095257 82.209 179.8265
149.168417 82.179 179.7516
150.249353 82.150 179.6765
151.338121 82.121 179.6008
152.434780 82.092 179.5241
153.539385 82.064 179.4462
154.651995 82.036 179.3672
155.772667 82.008 179.2880
156.901460 81.981 179.2092
158.038432 81.954 179.1317
159.183644 81.927 179.0564
160.337154 81.900 178.9843
161.499023 81.873 178.9160
162.669312 81.845 178.8520
163.848081 81.817 178.7924
165.035392 81.788 178.7370
166.231306 81.760 178.6854
167.435887 81.731 178.6370
168.649196 81.703 178.5909
169.871298 81.675 178.5467
171.102255 81.647 178.5039
172.342133 81.620 178.4625
173.590995 81.593 178.4225
174.848907 81.566 178.3846
176.115934 81.539 178.3495
177.392143 81.512 178.3184
178.677599 81.484 178.2919
179.972371 81.456 178.2704
181.276525 81.428 178.2537
182.590129 81.399 178.2412
183.913252 81.368 178.2322
185.245964 81.337 178.2263
186.588332 81.305 178.2239
187.940428 81.273 178.2257
189.302322 81.239 178.2323
190.674085 81.204 178.2444
192.055788 81.170 178.2630
193.447503 81.134 178.2886
194.849303 81.099 178.3217
196.261262 81.064 178.3619
197.683452 81.029 178.4085
199.115948 80.994 178.4600
200.558824 80.959 178.5146
202.012156 80.925 178.5709
203.476019 80.891 178.6272
204.950490 80.858 178.6819
206.435646 80.825 178.7335
207.931564 80.792 178.7794
209.438322 80.760 178.8179
210.955998 80.726 178.8481
212.484672 80.692 178.8715
214.024424 80.657 178.8917
215.575333 80.620 178.9125
217.137481 80.584 178.9369
218.710948 80.547 178.9672
220.295818 80.512 179.0045
221.892172 80.479 179.0485
223.500094 80.451 179.0973
225.119668 80.429 179.1471
226.750978 80.414 179.1931
228.394109 80.408 179.2310
230.049147 80.410 179.2583
231.716178 80.420 179.2762
233.395289 80.438 179.2902
235.086567 80.461 179.3091
236.790102 80.486 179.3436
238.505980 80.513 179.4028
240.234293 80.536 179.4918
241.975130 80.555 179.6088
243.728581 80.568 179.7456
245.494739 80.574 179.8901
247.273695 80.574 -179.9689
249.065542 80.570 -179.8387
250.870374 80.563 -179.7221
252.688284 80.554 -179.6189
254.519367 80.546 -179.5271
256.363720 80.538 -179.4443
258.221437 80.532 -179.3680
260.092616 80.526 -179.2962
261.977354 80.522 -179.2269
263.875750 80.520 -179.1589
265.787903 80.518 -179.0918
267.713911 80.519 -179.0255
269.653877 80.520 -178.9607
271.607900 80.522 -178.8982
273.576083 80.525 -178.8393
275.558528 80.529 -178.7847
277.555338 80.533 -178.7346
279.566619 80.536 -178.6883
281.592474 80.540 -178.6449
283.633009 80.543 -178.6032
285.688331 80.546 -178.5613
287.758546 80.549 -178.5176
289.843763 80.551 -178.4701
291.944090 80.553 -178.4167
294.059638 80.555 -178.3558
296.190515 80.556 -178.2863
298.336833 80.557 -178.2079
300.498705 80.558 -178.1216
302.676243 80.557 -178.0292
304.869559 80.557 -177.9332
307.078770 80.556 -177.8367
309.303989 80.556 -177.7416
311.545334 80.556 -177.6492
313.802919 80.558 -177.5591
316.076865 80.561 -177.4706
318.367288 80.565 -177.3823
320.674309 80.571 -177.2929
322.998047 80.579 -177.2010
325.338624 80.589 -177.1057
327.696162 80.599 -177.0061
330.070783 80.610 -176.9021
332.462612 80.621 -176.7943
334.871773 80.633 -176.6833
337.298392 80.643 -176.5702
339.742595 80.652 -176.4569
342.204510 80.660 -176.3461
344.684265 80.667 -176.2411
347.181989 80.673 -176.1452
349.697813 80.678 -176.0604
352.231868 80.682 -175.9867
354.784285 80.685 -175.9211
357.355198 80.687 -175.8588
359.944741 80.688 -175.7941
362.553049 80.687 -175.7224
365.180258 80.684 -175.6408
367.826505 80.680 -175.5479
370.491927 80.674 -175.4428
373.176665 80.668 -175.3252
375.880856 80.661 -175.1952
378.604644 80.653 -175.0546
381.348169 80.645 -174.9078
384.111575 80.636 -174.7606
386.895006 80.627 -174.6194
389.698607 80.617 -174.4882
392.522524 80.608 -174.3685
395.366904 80.598 -174.2589
398.231895 80.589 -174.1570
401.117648 80.579 -174.0601
404.024312 80.569 -173.9665
406.952038 80.558 -173.8747
409.900981 80.547 -173.7841
412.871292 80.535 -173.6945
415.863128 80.523 -173.6058
418.876643 80.510 -173.5183
421.911996 80.496 -173.4318
424.969344 80.481 -173.3462
428.048847 80.465 -173.2611
431.150666 80.448 -173.1757
434.274961 80.431 -173.0892
437.421897 80.412 -173.0011
440.591636 80.392 -172.9109
443.784345 80.371 -172.8189
447.000189 80.349 -172.7258
450.239337 80.327 -172.6324
453.501956 80.303 -172.5398
456.788219 80.279 -172.4486
460.098294 80.255 -172.3594
463.432356 80.230 -172.2726
466.790578 80.204 -172.1885
470.173135 80.178 -172.1072
473.580203 80.152 -172.0289
477.011961 80.126 -171.9535
480.468586 80.101 -171.8807
483.950259 80.075 -171.8100
487.457163 80.051 -171.7405
490.989478 80.027 -171.6711
494.547390 80.004 -171.6010
498.131084 79.982 -171.5292
501.740748 79.961 -171.4550
505.376568 79.941 -171.3781
509.038735 79.921 -171.2983
512.727439 79.903 -171.2163
516.442874 79.885 -171.1335
520.185232 79.868 -171.0511
523.954708 79.852 -170.9702
527.751500 79.837 -170.8915
531.575805 79.823 -170.8149
535.427822 79.811 -170.7400
539.307753 79.800 -170.6656
543.215800 79.791 -170.5905
547.152165 79.784 -170.5131
551.117055 79.779 -170.4319
555.110677 79.776 -170.3456
559.133237 79.775 -170.2536
563.184947 79.777 -170.1560
567.266018 79.780 -170.0529
571.376661 79.785 -169.9446
575.517092 79.793 -169.8312
579.687526 79.802 -169.7129
583.888181 79.813 -169.5902
588.119275 79.825 -169.4636
592.381030 79.838 -169.3338
596.673667 79.851 -169.2022
600.997410 79.864 -169.0702
605.352485 79.877 -168.9401
609.739119 79.889 -168.8138
614.157540 79.900 -168.6936
618.607979 79.910 -168.5813
623.090667 79.918 -168.4788
627.605839 79.924 -168.3869
632.153730 79.928 -168.3059
636.734576 79.929 -168.2344
641.348617 79.926 -168.1704
645.996094 79.920 -168.1105
650.677248 79.910 -168.0509
655.392323 79.895 -167.9868
660.141566 79.876 -167.9132
664.925224 79.853 -167.8244
669.743546 79.826 -167.7146
674.596784 79.795 -167.5786
679.485191 79.761 -167.4119
684.409020 79.726 -167.2110
689.368530 79.690 -166.9743
694.363979 79.654 -166.7021
699.395626 79.620 -166.3969
704.463736 79.588 -166.0636
709.568570 79.560 -165.7089
714.710396 79.536 -165.3410
719.889483 79.517 -164.9682
725.106099 79.500 -164.5986
730.360516 79.487 -164.2389
735.653010 79.477 -163.8942
740.983855 79.467 -163.5674
746.353329 79.458 -163.2597
751.761713 79.449 -162.9708
757.209288 79.439 -162.6991
762.696339 79.428 -162.4421
768.223151 79.416 -162.1969
773.790013 79.402 -161.9608
779.397214 79.387 -161.7312
785.045047 79.371 -161.5062
790.733808 79.354 -161.2844
796.463791 79.336 -161.0641
802.235296 79.318 -160.8444
808.048623 79.300 -160.6240
813.904077 79.283 -160.4021
819.801961 79.267 -160.1784
825.742584 79.251 -159.9527
831.726255 79.238 -159.7254
837.753287 79.226 -159.4977
843.823992 79.216 -159.2709
849.938689 79.208 -159.0464
856.097695 79.202 -158.8256
862.301332 79.199 -158.6096
868.549922 79.197 -158.3988
874.843793 79.196 -158.1934
881.183272 79.197 -157.9933
887.568689 79.199 -157.7988
894.000378 79.203 -157.6100
900.478673 79.209 -157.4272
907.003913 79.215 -157.2508
913.576437 79.223 -157.0810
920.196588 79.233 -156.9179
926.864712 79.245 -156.7617
933.581156 79.258 -156.6124
940.346270 79.273 -156.4699
947.160407 79.290 -156.3340
954.023921 79.309 -156.2041
960.937172 79.331 -156.0791
967.900519 79.355 -155.9582
974.914325 79.382 -155.8408
981.978956 79.411 -155.7271
989.094780 79.443 -155.6180
996.262169 79.478 -155.5145
1003.481495 79.515 -155.4176
1010.753136 79.554 -155.3276
1018.077470 79.595 -155.2445
1025.454879 79.638 -155.1674
1032.885748 79.682 -155.0951
1040.370463 79.727 -155.0266
1047.909417 79.773 -154.9607
1055.503000 79.821 -154.8970
1063.151610 79.869 -154.8351
1070.855645 79.918 -154.7748
1078.615506 79.969 -154.7159
1086.431599 80.020 -154.6588
1094.304330 80.071 -154.6039
1102.234110 80.124 -154.5518
1110.221353 80.177 -154.5030
1118.266475 80.230 -154.4584
1126.369895 80.283 -154.4186
1134.532035 80.337 -154.3845
1142.753322 80.390 -154.3568
1151.034184 80.443 -154.3360
1159.375052 80.496 -154.3224
1167.776361 80.548 -154.3160
1176.238550 80.599 -154.3169
1184.762060 80.650 -154.3249
1193.347334 80.699 -154.3401
1201.994821 80.748 -154.3627
1210.704971 80.795 -154.3929
1219.478238 80.842 -154.4306
1228.315080 80.888 -154.4761
1237.215957 80.933 -154.5291
1246.181334 80.978 -154.5894
1255.211678 81.021 -154.6563
1264.307459 81.063 -154.7287
1273.469152 81.104 -154.8052
1282.697235 81.144 -154.8845
1291.992188 81.182 -154.9650
1301.354495 81.219 -155.0459
1310.784647 81.255 -155.1265
1320.283132 81.289 -155.2069
1329.850448 81.321 -155.2872
1339.487093 81.351 -155.3679
1349.193569 81.380 -155.4489
1358.970381 81.407 -155.5299
1368.818041 81.432 -155.6100
1378.737061 81.455 -155.6877
1388.727958 81.476 -155.7608
1398.791253 81.496 -155.8270
1408.927471 81.515 -155.8843
1419.137140 81.533 -155.9312
1429.420793 81.551 -155.9667
1439.778965 81.570 -155.9909
1450.212197 81.589 -156.0040
1460.721033 81.608 -156.0068
1471.306019 81.628 -155.9997
1481.967709 81.649 -155.9832
1492.706658 81.669 -155.9574
1503.523426 81.688 -155.9221
1514.418576 81.707 -155.8767
1525.392678 81.725 -155.8199
1536.446302 81.741 -155.7509
1547.580025 81.756 -155.6694
1558.794428 81.768 -155.5752
1570.090095 81.779 -155.4684
1581.467615 81.786 -155.3486
1592.927581 81.790 -155.2149
1604.470591 81.791 -155.0658
1616.097246 81.787 -154.8997
1627.808153 81.780 -154.7147
1639.603922 81.768 -154.5095
1651.485168 81.753 -154.2827
1663.452510 81.735 -154.0334
1675.506573 81.713 -153.7607
1687.647984 81.690 -153.4647
1699.877377 81.665 -153.1457
1712.195390 81.639 -152.8048
1724.602663 81.613 -152.4438
1737.099845 81.587 -152.0651
1749.687587 81.562 -151.6712
1762.366544 81.537 -151.2650
1775.137379 81.513 -150.8489
1788.000756 81.489 -150.4251
1800.957346 81.465 -149.9946
1814.007826 81.440 -149.5572
1827.152874 81.414 -149.1113
1840.393177 81.386 -148.6548
1853.729425 81.358 -148.1858
1867.162312 81.329 -147.7026
1880.692540 81.300 -147.2041
1894.320813 81.270 -146.6901
1908.047843 81.240 -146.1605
1921.874344 81.210 -145.6162
1935.801038 81.179 -145.0584
1949.828650 81.150 -144.4894
1963.957912 81.121 -143.9118
1978.189561 81.093 -143.3277
1992.524338 81.065 -142.7389
2006.962991 81.038 -142.1463
2021.506272 81.013 -141.5507
2036.154940 80.989 -140.9533
2050.909758 80.966 -140.3557
2065.771495 80.946 -139.7601
2080.740927 80.929 -139.1687
2095.818833 80.914 -138.5836
2111.006001 80.903 -138.0060
2126.303220 80.895 -137.4369
2141.711290 80.890 -136.8767
2157.231013 80.890 -136.3268
2172.863198 80.895 -135.7890
2188.608660 80.906 -135.2668
2204.468221 80.922 -134.7651
2220.442706 80.944 -134.2900
2236.532950 80.972 -133.8490
2252.739789 81.006 -133.4496
2269.064070 81.045 -133.0987
2285.506644 81.087 -132.8011
2302.068367 81.132 -132.5592
2318.750104 81.179 -132.3722
2335.552723 81.225 -132.2371
2352.477101 81.270 -132.1492
2369.524119 81.314 -132.1026
2386.694668 81.356 -132.0912
2403.989641 81.395 -132.1090
2421.409941 81.432 -132.1504
2438.956476 81.467 -132.2102
2456.630160 81.499 -132.2839
2474.431915 81.531 -132.3676
2492.362668 81.561 -132.4589
2510.423356 81.591 -132.5560
2528.614918 81.620 -132.6582
2546.938304 81.650 -132.7656
2565.394469 81.680 -132.8782
2583.984375 81.710 -132.9959
2602.708991 81.740 -133.1185
2621.569293 81.770 -133.2451
2640.566265 81.799 -133.3745
2659.700897 81.827 -133.5051
2678.974186 81.855 -133.6346
2698.387137 81.881 -133.7599
2717.940763 81.905 -133.8779
2737.636082 81.927 -133.9848
2757.474121 81.948 -134.0771
2777.455915 81.967 -134.1516
2797.582506 81.984 -134.2054
2817.854942 81.999 -134.2360
2838.274281 82.011 -134.2410
2858.841586 82.022 -134.2177
2879.557931 82.031 -134.1627
2900.424394 82.038 -134.0721
2921.442065 82.042 -133.9409
2942.612039 82.044 -133.7641
2963.935418 82.045 -133.5370
2985.413316 82.045 -133.2560
3007.046852 82.045 -132.9197
3028.837153 82.045 -132.5291
3050.785356 82.047 -132.0879
3072.892604 82.051 -131.6016
3095.160050 82.056 -131.0769
3117.588856 82.063 -130.5202
3140.180190 82.072 -129.9373
3162.935230 82.082 -129.3330
3185.855163 82.092 -128.7112
3208.941182 82.102 -128.0761
3232.194493 82.113 -127.4319
3255.616307 82.122 -126.7827
3279.207844 82.131 -126.1320
3302.970336 82.138 -125.4815
3326.905021 82.144 -124.8312
3351.013146 82.146 -124.1791
3375.295969 82.147 -123.5213
3399.754755 82.145 -122.8530
3424.390779 82.141 -122.1686
3449.205326 82.136 -121.4625
3474.199690 82.131 -120.7284
3499.375173 82.128 -119.9602
3524.733088 82.128 -119.1522
3550.274757 82.134 -118.2998
3576.001511 82.148 -117.4006
3601.914692 82.174 -116.4554
3628.015651 82.214 -115.4689
3654.305748 82.273 -114.4499
3680.786354 82.352 -113.4118
3707.458849 82.454 -112.3724
3734.324624 82.582 -111.3532
3761.385080 82.736 -110.3784
3788.641627 82.916 -109.4734
3816.095686 83.122 -108.6633
3843.748688 83.352 -107.9712
3871.602076 83.602 -107.4171
3899.657300 83.869 -107.0169
3927.915825 84.150 -106.7814
3956.379122 84.440 -106.7169
3985.048676 84.736 -106.8256
4013.925981 85.033 -107.1065
4043.012544 85.329 -107.5562
4072.309879 85.619 -108.1698
4101.819515 85.900 -108.9401
4131.542990 86.168 -109.8575
4161.481854 86.420 -110.9090
4191.637667 86.654 -112.0786
4222.012001 86.867 -113.3470
4252.606441 87.056 -114.6931
4283.422580 87.222 -116.0948
4314.462026 87.363 -117.5293
4345.726396 87.480 -118.9743
4377.217321 87.574 -120.4086
4408.936442 87.645 -121.8127
4440.885413 87.697 -123.1697
4473.065899 87.730 -124.4664
4505.479579 87.748 -125.6930
4538.128141 87.753 -126.8440
4571.013288 87.749 -127.9171
4604.136735 87.737 -128.9134
4637.500207 87.721 -129.8367
4671.105446 87.703 -130.6931
4704.954201 87.684 -131.4901
4739.048239 87.666 -132.2360
4773.389336 87.652 -132.9397
4807.979283 87.641 -133.6096
4842.819883 87.636 -134.2542
4877.912952 87.637 -134.8810
4913.260320 87.645 -135.4968
4948.863830 87.660 -136.1081
4984.725337 87.684 -136.7209
5020.846712 87.717 -137.3408
5057.229836 87.761 -137.9738
5093.876609 87.815 -138.6260
5130.788938 87.880 -139.3037
5167.968750 87.957 -140.0142
5205.417982 88.046 -140.7658
5243.138586 88.148 -141.5683
5281.132530 88.263 -142.4331
5319.401793 88.390 -143.3727
5357.948371 88.527 -144.4007
5396.774274 88.673 -145.5311
5435.881525 88.826 -146.7775
5475.272163 88.983 -148.1517
5514.948243 89.138 -149.6630
5554.911831 89.289 -151.3168
5595.165012 89.430 -153.1142
5635.709884 89.557 -155.0510
5676.548561 89.666 -157.1181
5717.683172 89.752 -159.3017
5759.115861 89.811 -161.5833
5800.848789 89.841 -163.9406
5842.884130 89.839 -166.3480
5885.224077 89.802 -168.7771
5927.870837 89.729 -171.1975
5970.826633 89.620 -173.5772
6014.093704 89.475 -175.8832
6057.674306 89.294 -178.0820
6101.570711 89.079 179.8597
6145.785208 88.833 177.9744
6190.320101 88.559 176.2917
6235.177712 88.261 174.8383
6280.360380 87.945 173.6352
6325.870460 87.616 172.6973
6371.710325 87.281 172.0318
6417.882365 86.947 171.6368
6464.388986 86.621 171.5009
6511.232613 86.311 171.6019
6558.415689 86.024 171.9068
6605.940673 85.766 172.3730
6653.810042 85.541 172.9504
6702.026292 85.354 173.5854
6750.591937 85.204 174.2246
6799.509509 85.093 174.8197
6848.781558 85.019 175.3295
6898.410653 84.978 175.7216
6948.399380 84.969 175.9715
6998.750346 84.990 176.0613
7049.466176 85.038 175.9773
7100.549514 85.113 175.7068
7152.003023 85.213 175.2369
7203.829385 85.338 174.5515
7256.031302 85.488 173.6315
7308.611496 85.661 172.4537
7361.572708 85.856 170.9921
7414.917698 86.068 169.2189
7468.649249 86.292 167.1066
7522.770160 86.520 164.6303
7577.283253 86.744 161.7696
7632.191371 86.955 158.5111
7687.497376 87.140 154.8510
7743.204151 87.288 150.7959
7799.314600 87.387 146.3649
7855.831649 87.427 141.5900
7912.758244 87.398 136.5158
7970.097352 87.291 131.1980
8027.851962 87.100 125.7000
8086.025087 86.823 120.0885
8144.619758 86.457 114.4282
8203.639030 86.005 108.7765
8263.085980 85.470 103.1791
8322.963708 84.856 97.6678
8383.275334 84.170 92.2560
8444.024002 83.422 86.9366
8505.212881 82.623 81.6726
8566.845160 81.788 76.3780
8628.924051 80.937 70.8640
8691.452792 80.102 64.6616
8754.434642 79.321 56.1973
8817.872884 78.645 34.9896
8881.770826 78.129 -82.7335
8946.131799 77.820 -111.6460
9010.959157 77.739 -120.8301
9076.256282 77.874 -127.0920
9142.026576 78.183 -132.4894
9208.273470 78.611 -137.6027
9275.000415 79.106 -142.6697
9342.210891 79.624 -147.8084
9409.908403 80.132 -153.0824
9478.096478 80.606 -158.5240
9546.778672 81.030 -164.1445
9615.958566 81.392 -169.9390
9685.639765 81.683 -175.8885
9755.825904 81.897 178.0370
9826.520640 82.029 171.8788
9897.727659 82.076 165.6861
9969.450674 82.038 159.5143
10041.693423 81.915 153.4216
10114.459673 81.710 147.4651
10187.753217 81.428 141.6975
10261.577877 81.074 136.1633
10335.937500 80.656 130.8966
10410.835964 80.184 125.9191
10486.277173 79.666 121.2382
10562.265060 79.115 116.8475
10638.803587 78.542 112.7276
10715.896743 77.956 108.8479
10793.548548 77.371 105.1697
10871.763050 76.794 101.6492
10950.544327 76.237 98.2404
11029.896485 75.705 94.8966
11109.823662 75.207 91.5729
11190.330024 74.745 88.2253
11271.419768 74.325 84.8128
11353.097122 73.946 81.2966
11435.366344 73.609 77.6410
11518.231722 73.312 73.8143
11601.697577 73.053 69.7880
11685.768261 72.826 65.5380
11770.448155 72.628 61.0439
11855.741674 72.452 56.2891
11941.653265 72.294 51.2601
12028.187408 72.146 45.9476
12115.348612 72.002 40.3458
12203.141422 71.857 34.4536
12291.570415 71.704 28.2745
12380.640201 71.537 21.8173
12470.355424 71.351 15.0956
12560.720760 71.144 8.1267
12651.740920 70.915 0.9302
12743.420650 70.664 -6.4734
12835.764729 70.395 -14.0654
12928.777972 70.117 -21.8310
13022.465227 69.839 -29.7606
13116.831378 69.575 -37.8510
13211.881345 69.338 -46.1040
13307.620084 69.142 -54.5249
13404.052584 69.002 -63.1190
13501.183875 68.925 -71.8893
13599.019019 68.915 -80.8337
13697.563116 68.971 -89.9440
13796.821305 69.088 -99.2058
13896.798760 69.256 -108.6006
13997.500692 69.463 -118.1073
14098.932352 69.697 -127.7054
14201.099028 69.945 -137.3765
14304.006046 70.194 -147.1047
14407.658770 70.435 -156.8765
14512.062604 70.658 -166.6787
14617.222992 70.855 -176.4978
14723.145416 71.021 173.6825
14829.835397 71.154 163.8801
14937.298497 71.256 154.1130
15045.540320 71.332 144.3972
15154.566507 71.392 134.7400
15264.382743 71.449 125.1362
15374.994752 71.514 115.5642
15486.408302 71.598 105.9844
15598.629201 71.707 96.3425
15711.663298 71.840 86.5768
15825.516487 71.990 76.6265
15940.194703 72.145 66.4421
16055.703925 72.292 55.9883
16172.050174 72.421 45.2454
16289.239516 72.521 34.2054
16407.278061 72.584 22.8674
16526.171961 72.608 11.2351
16645.927415 72.588 -0.6854
16766.550667 72.524 -12.8881
16888.048005 72.418 -25.3672
17010.425762 72.273 -38.1199
17133.690320 72.094 -51.1476
17257.848103 71.886 -64.4574
17382.905584 71.657 -78.0588
17508.869284 71.413 -91.9636
17635.745768 71.158 -106.1801
17763.541652 70.895 -120.7067
17892.263597 70.628 -135.5270
18021.918315 70.357 -150.5953
18152.512564 70.081 -165.8217
18284.053153 69.801 178.9523
18416.546939 69.518 163.9803
18550.000830 69.234 149.6343
18684.421783 68.956 136.4202
18819.816805 68.690 124.9879
18956.192956 68.447 116.1970
19093.557344 68.235 111.4342
19231.917131 68.061 113.5760
19371.279531 67.926 128.0388
19511.651807 67.828 153.7693
19653.041280 67.762 172.5756
19795.455318 67.722 -179.5754
19938.901348 67.703 -177.0757
