* Measurement data measured by REW V5.31.3
* Source: EXCL: Headset (USB-C to 3.5mm Headphone Jack Adapter), MICROPHONE (Master Volume), 0, volume: 0.750
* Format: 256k Log Swept Sine, 1 sweep at -12.0 dBFS with no timing reference
* Dated: May 15, 2025 10:56:41 PM
* REW Settings:
*  C-weighting compensation: Off
*  Target level: 75.0 dB
* Note: ; 
* Measurement: HD560s (worn) R4
* Smoothing: 1/6 octave
* Frequency Step: 96 ppo
* Start Frequency: 20.0 Hz
*
* Freq(Hz) SPL(dB) Phase(degrees)
20.187378 75.340 -80.9176
20.333664 75.378 -81.0929
20.481010 75.428 -81.3283
20.629424 75.488 -81.6177
20.778913 75.555 -81.9543
20.929486 75.627 -82.3309
21.081150 75.701 -82.7404
21.233912 75.776 -83.1755
21.387782 75.850 -83.6295
21.542767 75.922 -84.0962
21.698874 75.992 -84.5704
21.856113 76.061 -85.0482
22.014492 76.129 -85.5274
22.174018 76.197 -86.0077
22.334700 76.267 -86.4903
22.496546 76.340 -86.9780
22.659566 76.416 -87.4744
22.823766 76.497 -87.9829
22.989157 76.582 -88.5065
23.155745 76.671 -89.0461
23.323542 76.763 -89.6009
23.492554 76.858 -90.1677
23.662790 76.954 -90.7416
23.834261 77.051 -91.3162
24.006973 77.146 -91.8850
24.180938 77.239 -92.4419
24.356163 77.329 -92.9825
24.532658 77.415 -93.5042
24.710431 77.496 -94.0070
24.889493 77.571 -94.4929
25.069853 77.639 -94.9654
25.251519 77.699 -95.4289
25.434502 77.752 -95.8880
25.618811 77.796 -96.3462
25.804456 77.831 -96.8060
25.991445 77.857 -97.2686
26.179790 77.877 -97.7339
26.369500 77.891 -98.2011
26.560584 77.901 -98.6691
26.753053 77.910 -99.1373
26.946917 77.920 -99.6060
27.142185 77.934 -100.0765
27.338869 77.954 -100.5508
27.536977 77.980 -101.0314
27.736522 78.014 -101.5201
27.937512 78.054 -102.0178
28.139959 78.100 -102.5236
28.343872 78.150 -103.0350
28.549264 78.201 -103.5483
28.756143 78.253 -104.0586
28.964522 78.303 -104.5614
29.174411 78.351 -105.0534
29.385821 78.396 -105.5327
29.598763 78.439 -105.9997
29.813248 78.479 -106.4568
30.029287 78.517 -106.9080
30.246891 78.555 -107.3579
30.466073 78.594 -107.8114
30.686842 78.635 -108.2721
30.909212 78.679 -108.7423
31.133193 78.729 -109.2226
31.358797 78.784 -109.7118
31.586035 78.846 -110.2073
31.814921 78.914 -110.7061
32.045465 78.990 -111.2046
32.277680 79.071 -111.6994
32.511577 79.158 -112.1876
32.747169 79.248 -112.6667
32.984469 79.341 -113.1348
33.223488 79.435 -113.5909
33.464239 79.528 -114.0346
33.706735 79.620 -114.4668
33.950987 79.710 -114.8897
34.197010 79.798 -115.3069
34.444816 79.884 -115.7234
34.694417 79.969 -116.1449
34.945827 80.053 -116.5770
35.199059 80.136 -117.0245
35.454126 80.219 -117.4904
35.711041 80.301 -117.9753
35.969818 80.383 -118.4774
36.230470 80.464 -118.9932
36.493011 80.543 -119.5176
36.757455 80.622 -120.0457
37.023814 80.698 -120.5732
37.292104 80.771 -121.0972
37.562338 80.841 -121.6165
37.834530 80.907 -122.1309
38.108695 80.967 -122.6411
38.384846 81.022 -123.1479
38.662999 81.070 -123.6516
38.943167 81.113 -124.1516
39.225365 81.150 -124.6467
39.509608 81.182 -125.1348
39.795911 81.211 -125.6134
40.084289 81.238 -126.0792
40.374756 81.264 -126.5286
40.667328 81.291 -126.9575
40.962020 81.318 -127.3615
41.258848 81.346 -127.7362
41.557827 81.375 -128.0782
41.858972 81.404 -128.3853
42.162299 81.432 -128.6578
42.467824 81.459 -128.8985
42.775564 81.484 -129.1125
43.085533 81.507 -129.3072
43.397749 81.529 -129.4908
43.712227 81.549 -129.6717
44.028983 81.569 -129.8569
44.348036 81.590 -130.0521
44.669400 81.613 -130.2601
44.993093 81.640 -130.4818
45.319131 81.669 -130.7156
45.647532 81.703 -130.9586
45.978313 81.740 -131.2070
46.311491 81.780 -131.4573
46.647083 81.820 -131.7071
46.985107 81.861 -131.9553
47.325581 81.901 -132.2022
47.668521 81.939 -132.4493
48.013947 81.974 -132.6990
48.361876 82.007 -132.9537
48.712326 82.036 -133.2156
49.065315 82.063 -133.4870
49.420863 82.087 -133.7701
49.778987 82.110 -134.0670
50.139706 82.130 -134.3801
50.503039 82.149 -134.7113
50.869005 82.167 -135.0621
51.237623 82.183 -135.4323
51.608912 82.199 -135.8197
51.982891 82.214 -136.2201
52.359580 82.230 -136.6269
52.739000 82.245 -137.0321
53.121168 82.260 -137.4275
53.506106 82.275 -137.8066
53.893833 82.290 -138.1653
54.284370 82.304 -138.5037
54.677737 82.316 -138.8258
55.073955 82.326 -139.1387
55.473043 82.333 -139.4516
55.875024 82.337 -139.7732
56.279917 82.336 -140.1109
56.687745 82.331 -140.4700
57.098527 82.322 -140.8527
57.512287 82.310 -141.2582
57.929045 82.297 -141.6819
58.348822 82.287 -142.1154
58.771642 82.281 -142.5473
59.197525 82.283 -142.9652
59.626495 82.298 -143.3592
60.058573 82.325 -143.7237
60.493782 82.367 -144.0589
60.932145 82.421 -144.3696
61.373685 82.483 -144.6625
61.818424 82.551 -144.9449
62.266386 82.621 -145.2238
62.717593 82.690 -145.5050
63.172071 82.756 -145.7937
63.629842 82.818 -146.0934
64.090930 82.877 -146.4057
64.555359 82.933 -146.7297
65.023154 82.987 -147.0628
65.494339 83.039 -147.4018
65.968938 83.090 -147.7429
66.446976 83.139 -148.0834
66.928478 83.189 -148.4215
67.413469 83.237 -148.7565
67.901975 83.283 -149.0888
68.394021 83.328 -149.4196
68.889632 83.370 -149.7502
69.388835 83.410 -150.0822
69.891655 83.446 -150.4167
70.398118 83.480 -150.7545
70.908252 83.510 -151.0959
71.422083 83.538 -151.4404
71.939636 83.562 -151.7871
72.460941 83.583 -152.1345
72.986023 83.602 -152.4809
73.514909 83.617 -152.8247
74.047629 83.629 -153.1647
74.584208 83.638 -153.5001
75.124676 83.645 -153.8306
75.669061 83.648 -154.1564
76.217390 83.650 -154.4782
76.769692 83.649 -154.7966
77.325997 83.646 -155.1122
77.886333 83.642 -155.4258
78.450730 83.636 -155.7377
79.019216 83.630 -156.0480
79.591822 83.622 -156.3565
80.168577 83.613 -156.6624
80.749512 83.603 -156.9651
81.334656 83.592 -157.2641
81.924040 83.581 -157.5588
82.517696 83.568 -157.8493
83.115653 83.555 -158.1359
83.717943 83.542 -158.4190
84.324598 83.529 -158.6993
84.935649 83.515 -158.9773
85.551128 83.501 -159.2538
86.171066 83.487 -159.5292
86.795497 83.472 -159.8041
87.424453 83.457 -160.0790
88.057967 83.442 -160.3544
88.696071 83.425 -160.6302
89.338800 83.409 -160.9062
89.986185 83.392 -161.1821
90.638262 83.375 -161.4571
91.295065 83.357 -161.7307
91.956626 83.339 -162.0022
92.622982 83.320 -162.2714
93.294166 83.301 -162.5378
93.970214 83.282 -162.8009
94.651161 83.262 -163.0605
95.337042 83.242 -163.3162
96.027894 83.222 -163.5680
96.723752 83.202 -163.8161
97.424652 83.182 -164.0607
98.130631 83.161 -164.3020
98.841726 83.142 -164.5401
99.557974 83.122 -164.7752
100.279412 83.102 -165.0070
101.006078 83.083 -165.2355
101.738010 83.064 -165.4607
102.475245 83.045 -165.6826
103.217823 83.026 -165.9010
103.965782 83.007 -166.1158
104.719161 82.989 -166.3268
105.477999 82.972 -166.5340
106.242336 82.957 -166.7379
107.012212 82.944 -166.9395
107.787666 82.933 -167.1404
108.568740 82.924 -167.3419
109.355474 82.918 -167.5448
110.147909 82.912 -167.7495
110.946086 82.908 -167.9556
111.750047 82.904 -168.1624
112.559834 82.899 -168.3686
113.375489 82.895 -168.5728
114.197055 82.890 -168.7736
115.024574 82.885 -168.9696
115.858089 82.880 -169.1596
116.697645 82.874 -169.3425
117.543284 82.867 -169.5167
118.395051 82.862 -169.6806
119.252990 82.856 -169.8328
120.117147 82.851 -169.9727
120.987565 82.846 -170.1012
121.864291 82.842 -170.2208
122.747370 82.838 -170.3345
123.636848 82.833 -170.4453
124.532771 82.828 -170.5554
125.435187 82.822 -170.6661
126.344142 82.814 -170.7778
127.259684 82.805 -170.8904
128.181860 82.795 -171.0034
129.110718 82.784 -171.1161
130.046308 82.772 -171.2279
130.988677 82.758 -171.3383
131.937875 82.744 -171.4476
132.893951 82.729 -171.5560
133.856956 82.714 -171.6642
134.826938 82.697 -171.7726
135.803950 82.680 -171.8813
136.788041 82.663 -171.9899
137.779264 82.644 -172.0979
138.777669 82.624 -172.2048
139.783309 82.603 -172.3103
140.796237 82.581 -172.4139
141.816504 82.558 -172.5155
142.844165 82.534 -172.6145
143.879273 82.508 -172.7104
144.921881 82.480 -172.8029
145.972045 82.452 -172.8914
147.029819 82.422 -172.9760
148.095257 82.390 -173.0565
149.168417 82.358 -173.1333
150.249353 82.325 -173.2067
151.338121 82.291 -173.2767
152.434780 82.257 -173.3437
153.539385 82.223 -173.4077
154.651995 82.189 -173.4691
155.772667 82.156 -173.5280
156.901460 82.124 -173.5845
158.038432 82.093 -173.6387
159.183644 82.063 -173.6908
160.337154 82.034 -173.7410
161.499023 82.005 -173.7896
162.669312 81.978 -173.8369
163.848081 81.951 -173.8830
165.035392 81.925 -173.9281
166.231306 81.899 -173.9720
167.435887 81.873 -174.0144
168.649196 81.847 -174.0549
169.871298 81.821 -174.0930
171.102255 81.795 -174.1280
172.342133 81.768 -174.1595
173.590995 81.741 -174.1871
174.848907 81.713 -174.2102
176.115934 81.685 -174.2287
177.392143 81.657 -174.2421
178.677599 81.628 -174.2502
179.972371 81.598 -174.2527
181.276525 81.568 -174.2500
182.590129 81.537 -174.2426
183.913252 81.505 -174.2308
185.245964 81.472 -174.2147
186.588332 81.439 -174.1939
187.940428 81.404 -174.1673
189.302322 81.369 -174.1336
190.674085 81.333 -174.0919
192.055788 81.296 -174.0421
193.447503 81.259 -173.9851
194.849303 81.222 -173.9224
196.261262 81.185 -173.8557
197.683452 81.149 -173.7863
199.115948 81.113 -173.7150
200.558824 81.078 -173.6419
202.012156 81.043 -173.5666
203.476019 81.010 -173.4883
204.950490 80.978 -173.4062
206.435646 80.946 -173.3195
207.931564 80.915 -173.2278
209.438322 80.885 -173.1312
210.955998 80.856 -173.0301
212.484672 80.827 -172.9250
214.024424 80.800 -172.8168
215.575333 80.775 -172.7058
217.137481 80.750 -172.5927
218.710948 80.727 -172.4779
220.295818 80.706 -172.3620
221.892172 80.686 -172.2456
223.500094 80.667 -172.1294
225.119668 80.650 -172.0145
226.750978 80.634 -171.9021
228.394109 80.620 -171.7930
230.049147 80.609 -171.6877
231.716178 80.600 -171.5858
233.395289 80.594 -171.4863
235.086567 80.592 -171.3879
236.790102 80.592 -171.2894
238.505980 80.594 -171.1895
240.234293 80.599 -171.0875
241.975130 80.605 -170.9826
243.728581 80.611 -170.8746
245.494739 80.618 -170.7632
247.273695 80.625 -170.6481
249.065542 80.631 -170.5289
250.870374 80.637 -170.4057
252.688284 80.642 -170.2789
254.519367 80.647 -170.1497
256.363720 80.651 -170.0196
258.221437 80.655 -169.8902
260.092616 80.659 -169.7630
261.977354 80.662 -169.6389
263.875750 80.665 -169.5188
265.787903 80.667 -169.4032
267.713911 80.668 -169.2917
269.653877 80.668 -169.1838
271.607900 80.667 -169.0783
273.576083 80.667 -168.9740
275.558528 80.665 -168.8697
277.555338 80.664 -168.7648
279.566619 80.663 -168.6590
281.592474 80.663 -168.5519
283.633009 80.664 -168.4434
285.688331 80.665 -168.3330
287.758546 80.667 -168.2205
289.843763 80.670 -168.1055
291.944090 80.674 -167.9879
294.059638 80.677 -167.8678
296.190515 80.681 -167.7452
298.336833 80.685 -167.6203
300.498705 80.689 -167.4928
302.676243 80.693 -167.3622
304.869559 80.698 -167.2276
307.078770 80.702 -167.0886
309.303989 80.707 -166.9447
311.545334 80.712 -166.7964
313.802919 80.717 -166.6443
316.076865 80.724 -166.4895
318.367288 80.731 -166.3329
320.674309 80.738 -166.1748
322.998047 80.746 -166.0152
325.338624 80.755 -165.8540
327.696162 80.764 -165.6908
330.070783 80.773 -165.5256
332.462612 80.781 -165.3586
334.871773 80.790 -165.1904
337.298392 80.798 -165.0214
339.742595 80.805 -164.8522
342.204510 80.812 -164.6833
344.684265 80.818 -164.5153
347.181989 80.822 -164.3486
349.697813 80.826 -164.1835
352.231868 80.828 -164.0201
354.784285 80.828 -163.8578
357.355198 80.827 -163.6960
359.944741 80.825 -163.5336
362.553049 80.822 -163.3699
365.180258 80.819 -163.2041
367.826505 80.815 -163.0359
370.491927 80.811 -162.8653
373.176665 80.808 -162.6926
375.880856 80.804 -162.5178
378.604644 80.801 -162.3410
381.348169 80.797 -162.1620
384.111575 80.794 -161.9804
386.895006 80.791 -161.7960
389.698607 80.787 -161.6085
392.522524 80.784 -161.4183
395.366904 80.780 -161.2259
398.231895 80.776 -161.0319
401.117648 80.772 -160.8374
404.024312 80.768 -160.6434
406.952038 80.762 -160.4508
409.900981 80.756 -160.2604
412.871292 80.749 -160.0723
415.863128 80.741 -159.8862
418.876643 80.731 -159.7017
421.911996 80.720 -159.5184
424.969344 80.708 -159.3358
428.048847 80.694 -159.1539
431.150666 80.679 -158.9726
434.274961 80.662 -158.7919
437.421897 80.644 -158.6118
440.591636 80.624 -158.4322
443.784345 80.603 -158.2532
447.000189 80.581 -158.0747
450.239337 80.558 -157.8970
453.501956 80.533 -157.7204
456.788219 80.509 -157.5455
460.098294 80.484 -157.3731
463.432356 80.459 -157.2036
466.790578 80.434 -157.0371
470.173135 80.409 -156.8735
473.580203 80.385 -156.7120
477.011961 80.361 -156.5515
480.468586 80.338 -156.3908
483.950259 80.315 -156.2290
487.457163 80.293 -156.0650
490.989478 80.272 -155.8984
494.547390 80.251 -155.7291
498.131084 80.231 -155.5576
501.740748 80.212 -155.3846
505.376568 80.194 -155.2110
509.038735 80.176 -155.0377
512.727439 80.160 -154.8650
516.442874 80.144 -154.6928
520.185232 80.130 -154.5203
523.954708 80.117 -154.3465
527.751500 80.104 -154.1700
531.575805 80.093 -153.9896
535.427822 80.083 -153.8041
539.307753 80.075 -153.6122
543.215800 80.068 -153.4132
547.152165 80.062 -153.2060
551.117055 80.059 -152.9902
555.110677 80.057 -152.7652
559.133237 80.058 -152.5310
563.184947 80.061 -152.2879
567.266018 80.066 -152.0368
571.376661 80.074 -151.7787
575.517092 80.084 -151.5154
579.687526 80.096 -151.2490
583.888181 80.110 -150.9819
588.119275 80.126 -150.7166
592.381030 80.143 -150.4554
596.673667 80.160 -150.2002
600.997410 80.178 -149.9526
605.352485 80.195 -149.7141
609.739119 80.211 -149.4854
614.157540 80.225 -149.2674
618.607979 80.237 -149.0599
623.090667 80.248 -148.8624
627.605839 80.255 -148.6738
632.153730 80.260 -148.4922
636.734576 80.262 -148.3155
641.348617 80.260 -148.1413
645.996094 80.256 -147.9672
650.677248 80.247 -147.7905
655.392323 80.236 -147.6084
660.141566 80.220 -147.4174
664.925224 80.201 -147.2137
669.743546 80.178 -146.9931
674.596784 80.153 -146.7511
679.485191 80.124 -146.4837
684.409020 80.094 -146.1873
689.368530 80.062 -145.8600
694.363979 80.031 -145.5012
699.395626 79.999 -145.1126
704.463736 79.969 -144.6981
709.568570 79.941 -144.2629
714.710396 79.915 -143.8135
719.889483 79.892 -143.3566
725.106099 79.870 -142.8980
730.360516 79.851 -142.4427
735.653010 79.833 -141.9939
740.983855 79.815 -141.5534
746.353329 79.798 -141.1219
751.761713 79.781 -140.6989
757.209288 79.764 -140.2833
762.696339 79.746 -139.8734
768.223151 79.727 -139.4678
773.790013 79.708 -139.0653
779.397214 79.689 -138.6652
785.045047 79.669 -138.2677
790.733808 79.649 -137.8732
796.463791 79.629 -137.4824
802.235296 79.609 -137.0957
808.048623 79.590 -136.7129
813.904077 79.571 -136.3331
819.801961 79.552 -135.9545
825.742584 79.534 -135.5752
831.726255 79.517 -135.1932
837.753287 79.500 -134.8069
843.823992 79.485 -134.4149
849.938689 79.472 -134.0164
856.097695 79.460 -133.6108
862.301332 79.449 -133.1982
868.549922 79.441 -132.7791
874.843793 79.435 -132.3543
881.183272 79.432 -131.9254
887.568689 79.431 -131.4943
894.000378 79.432 -131.0635
900.478673 79.437 -130.6355
907.003913 79.443 -130.2128
913.576437 79.453 -129.7977
920.196588 79.464 -129.3922
926.864712 79.479 -128.9974
933.581156 79.495 -128.6142
940.346270 79.513 -128.2423
947.160407 79.534 -127.8811
954.023921 79.556 -127.5297
960.937172 79.580 -127.1868
967.900519 79.606 -126.8510
974.914325 79.634 -126.5209
981.978956 79.664 -126.1956
989.094780 79.695 -125.8739
996.262169 79.728 -125.5550
1003.481495 79.764 -125.2380
1010.753136 79.800 -124.9223
1018.077470 79.839 -124.6074
1025.454879 79.880 -124.2926
1032.885748 79.922 -123.9778
1040.370463 79.966 -123.6628
1047.909417 80.012 -123.3478
1055.503000 80.060 -123.0333
1063.151610 80.109 -122.7199
1070.855645 80.159 -122.4079
1078.615506 80.210 -122.0972
1086.431599 80.263 -121.7873
1094.304330 80.315 -121.4772
1102.234110 80.369 -121.1663
1110.221353 80.423 -120.8542
1118.266475 80.477 -120.5411
1126.369895 80.532 -120.2278
1134.532035 80.588 -119.9154
1142.753322 80.643 -119.6052
1151.034184 80.700 -119.2988
1159.375052 80.756 -118.9979
1167.776361 80.813 -118.7040
1176.238550 80.870 -118.4187
1184.762060 80.926 -118.1435
1193.347334 80.983 -117.8795
1201.994821 81.038 -117.6275
1210.704971 81.093 -117.3880
1219.478238 81.147 -117.1609
1228.315080 81.200 -116.9454
1237.215957 81.251 -116.7401
1246.181334 81.301 -116.5430
1255.211678 81.348 -116.3517
1264.307459 81.393 -116.1632
1273.469152 81.437 -115.9747
1282.697235 81.477 -115.7834
1291.992188 81.516 -115.5868
1301.354495 81.553 -115.3827
1310.784647 81.587 -115.1695
1320.283132 81.620 -114.9463
1329.850448 81.652 -114.7126
1339.487093 81.682 -114.4682
1349.193569 81.712 -114.2132
1358.970381 81.741 -113.9479
1368.818041 81.770 -113.6732
1378.737061 81.800 -113.3906
1388.727958 81.830 -113.1019
1398.791253 81.861 -112.8093
1408.927471 81.892 -112.5152
1419.137140 81.925 -112.2214
1429.420793 81.958 -111.9290
1439.778965 81.991 -111.6377
1450.212197 82.023 -111.3458
1460.721033 82.055 -111.0507
1471.306019 82.085 -110.7490
1481.967709 82.115 -110.4368
1492.706658 82.143 -110.1108
1503.523426 82.169 -109.7680
1514.418576 82.194 -109.4064
1525.392678 82.218 -109.0247
1536.446302 82.240 -108.6224
1547.580025 82.260 -108.1994
1558.794428 82.278 -107.7556
1570.090095 82.293 -107.2907
1581.467615 82.305 -106.8039
1592.927581 82.315 -106.2943
1604.470591 82.321 -105.7607
1616.097246 82.324 -105.2026
1627.808153 82.325 -104.6194
1639.603922 82.322 -104.0116
1651.485168 82.318 -103.3799
1663.452510 82.311 -102.7254
1675.506573 82.303 -102.0499
1687.647984 82.294 -101.3556
1699.877377 82.283 -100.6445
1712.195390 82.272 -99.9180
1724.602663 82.259 -99.1770
1737.099845 82.246 -98.4214
1749.687587 82.232 -97.6503
1762.366544 82.217 -96.8623
1775.137379 82.202 -96.0553
1788.000756 82.187 -95.2273
1800.957346 82.173 -94.3766
1814.007826 82.158 -93.5023
1827.152874 82.145 -92.6048
1840.393177 82.134 -91.6857
1853.729425 82.124 -90.7482
1867.162312 82.117 -89.7961
1880.692540 82.111 -88.8339
1894.320813 82.107 -87.8655
1908.047843 82.104 -86.8934
1921.874344 82.103 -85.9183
1935.801038 82.102 -84.9399
1949.828650 82.102 -83.9577
1963.957912 82.103 -82.9726
1978.189561 82.106 -81.9869
1992.524338 82.110 -81.0042
2006.962991 82.116 -80.0283
2021.506272 82.123 -79.0621
2036.154940 82.132 -78.1071
2050.909758 82.142 -77.1627
2065.771495 82.153 -76.2274
2080.740927 82.165 -75.2994
2095.818833 82.180 -74.3776
2111.006001 82.198 -73.4625
2126.303220 82.220 -72.5562
2141.711290 82.246 -71.6627
2157.231013 82.278 -70.7878
2172.863198 82.314 -69.9388
2188.608660 82.356 -69.1228
2204.468221 82.403 -68.3467
2220.442706 82.455 -67.6161
2236.532950 82.510 -66.9355
2252.739789 82.567 -66.3077
2269.064070 82.627 -65.7343
2285.506644 82.687 -65.2151
2302.068367 82.747 -64.7483
2318.750104 82.805 -64.3307
2335.552723 82.862 -63.9582
2352.477101 82.916 -63.6263
2369.524119 82.968 -63.3306
2386.694668 83.016 -63.0666
2403.989641 83.062 -62.8299
2421.409941 83.104 -62.6163
2438.956476 83.143 -62.4220
2456.630160 83.180 -62.2437
2474.431915 83.213 -62.0785
2492.362668 83.244 -61.9238
2510.423356 83.272 -61.7772
2528.614918 83.297 -61.6361
2546.938304 83.319 -61.4980
2565.394469 83.338 -61.3597
2583.984375 83.354 -61.2175
2602.708991 83.366 -61.0672
2621.569293 83.376 -60.9044
2640.566265 83.382 -60.7251
2659.700897 83.386 -60.5258
2678.974186 83.387 -60.3037
2698.387137 83.386 -60.0566
2717.940763 83.382 -59.7827
2737.636082 83.376 -59.4803
2757.474121 83.367 -59.1468
2777.455915 83.356 -58.7789
2797.582506 83.342 -58.3719
2817.854942 83.326 -57.9205
2838.274281 83.307 -57.4188
2858.841586 83.286 -56.8613
2879.557931 83.263 -56.2427
2900.424394 83.239 -55.5590
2921.442065 83.215 -54.8071
2942.612039 83.191 -53.9850
2963.935418 83.167 -53.0916
2985.413316 83.145 -52.1261
3007.046852 83.125 -51.0889
3028.837153 83.107 -49.9815
3050.785356 83.093 -48.8071
3072.892604 83.082 -47.5704
3095.160050 83.075 -46.2776
3117.588856 83.071 -44.9357
3140.180190 83.072 -43.5524
3162.935230 83.076 -42.1357
3185.855163 83.083 -40.6932
3208.941182 83.094 -39.2323
3232.194493 83.107 -37.7595
3255.616307 83.123 -36.2801
3279.207844 83.140 -34.7984
3302.970336 83.158 -33.3172
3326.905021 83.176 -31.8384
3351.013146 83.196 -30.3625
3375.295969 83.216 -28.8889
3399.754755 83.236 -27.4150
3424.390779 83.257 -25.9366
3449.205326 83.278 -24.4482
3474.199690 83.302 -22.9434
3499.375173 83.330 -21.4163
3524.733088 83.363 -19.8630
3550.274757 83.404 -18.2829
3576.001511 83.455 -16.6796
3601.914692 83.518 -15.0608
3628.015651 83.596 -13.4376
3654.305748 83.690 -11.8230
3680.786354 83.801 -10.2312
3707.458849 83.930 -8.6768
3734.324624 84.079 -7.1749
3761.385080 84.245 -5.7408
3788.641627 84.430 -4.3896
3816.095686 84.631 -3.1359
3843.748688 84.848 -1.9930
3871.602076 85.077 -0.9721
3899.657300 85.317 -0.0807
3927.915825 85.564 0.6771
3956.379122 85.816 1.3012
3985.048676 86.070 1.7947
4013.925981 86.324 2.1624
4043.012544 86.575 2.4099
4072.309879 86.821 2.5431
4101.819515 87.060 2.5675
4131.542990 87.290 2.4892
4161.481854 87.509 2.3157
4191.637667 87.714 2.0569
4222.012001 87.903 1.7254
4252.606441 88.074 1.3368
4283.422580 88.226 0.9086
4314.462026 88.359 0.4595
4345.726396 88.472 0.0086
4377.217321 88.566 -0.4263
4408.936442 88.641 -0.8285
4440.885413 88.700 -1.1835
4473.065899 88.744 -1.4792
4505.479579 88.775 -1.7063
4538.128141 88.795 -1.8588
4571.013288 88.807 -1.9335
4604.136735 88.813 -1.9308
4637.500207 88.814 -1.8534
4671.105446 88.815 -1.7066
4704.954201 88.815 -1.4974
4739.048239 88.818 -1.2340
4773.389336 88.824 -0.9255
4807.979283 88.836 -0.5810
4842.819883 88.853 -0.2097
4877.912952 88.878 0.1801
4913.260320 88.911 0.5804
4948.863830 88.952 0.9837
4984.725337 89.004 1.3825
5020.846712 89.066 1.7695
5057.229836 89.139 2.1366
5093.876609 89.224 2.4752
5130.788938 89.321 2.7759
5167.968750 89.430 3.0281
5205.417982 89.552 3.2203
5243.138586 89.685 3.3397
5281.132530 89.829 3.3731
5319.401793 89.983 3.3067
5357.948371 90.143 3.1268
5396.774274 90.308 2.8208
5435.881525 90.475 2.3777
5475.272163 90.638 1.7893
5514.948243 90.796 1.0517
5554.911831 90.942 0.1656
5595.165012 91.072 -0.8632
5635.709884 91.183 -2.0233
5676.548561 91.270 -3.2982
5717.683172 91.329 -4.6668
5759.115861 91.358 -6.1040
5800.848789 91.355 -7.5816
5842.884130 91.317 -9.0690
5885.224077 91.244 -10.5338
5927.870837 91.136 -11.9426
5970.826633 90.992 -13.2614
6014.093704 90.815 -14.4566
6057.674306 90.607 -15.4951
6101.570711 90.369 -16.3452
6145.785208 90.106 -16.9773
6190.320101 89.821 -17.3647
6235.177712 89.519 -17.4851
6280.360380 89.206 -17.3212
6325.870460 88.888 -16.8621
6371.710325 88.570 -16.1045
6417.882365 88.260 -15.0535
6464.388986 87.965 -13.7237
6511.232613 87.690 -12.1401
6558.415689 87.442 -10.3389
6605.940673 87.226 -8.3672
6653.810042 87.048 -6.2815
6702.026292 86.909 -4.1448
6750.591937 86.811 -2.0220
6799.509509 86.753 0.0254
6848.781558 86.734 1.9431
6898.410653 86.750 3.6867
6948.399380 86.797 5.2229
6998.750346 86.871 6.5280
7049.466176 86.967 7.5867
7100.549514 87.082 8.3887
7152.003023 87.212 8.9272
7203.829385 87.354 9.1967
7256.031302 87.503 9.1915
7308.611496 87.658 8.9051
7361.572708 87.813 8.3309
7414.917698 87.964 7.4623
7468.649249 88.107 6.2946
7522.770160 88.236 4.8258
7577.283253 88.345 3.0590
7632.191371 88.426 1.0031
7687.497376 88.472 -1.3255
7743.204151 88.478 -3.9027
7799.314600 88.436 -6.6961
7855.831649 88.341 -9.6664
7912.758244 88.189 -12.7692
7970.097352 87.977 -15.9575
8027.851962 87.704 -19.1856
8086.025087 87.372 -22.4122
8144.619758 86.982 -25.6043
8203.639030 86.539 -28.7397
8263.085980 86.047 -31.8095
8322.963708 85.512 -34.8185
8383.275334 84.940 -37.7865
8444.024002 84.337 -40.7481
8505.212881 83.710 -43.7525
8566.845160 83.066 -46.8643
8628.924051 82.412 -50.1649
8691.452792 81.758 -53.7546
8754.434642 81.113 -57.7592
8817.872884 80.492 -62.3371
8881.770826 79.911 -67.6916
8946.131799 79.390 -74.0854
9010.959157 78.953 -81.8520
9076.256282 78.622 -91.3845
9142.026576 78.418 -103.0517
9208.273470 78.353 -116.9671
9275.000415 78.424 -132.6386
9342.210891 78.617 -148.8551
9409.908403 78.908 -164.2224
9478.096478 79.266 -177.9010
9546.778672 79.662 170.2397
9615.958566 80.069 159.9331
9685.639765 80.462 150.8190
9755.825904 80.825 142.5819
9826.520640 81.142 134.9875
9897.727659 81.401 127.8759
9969.450674 81.595 121.1472
10041.693423 81.718 114.7468
10114.459673 81.765 108.6536
10187.753217 81.736 102.8702
10261.577877 81.631 97.4156
10335.937500 81.452 92.3183
10410.835964 81.205 87.6102
10486.277173 80.897 83.3203
10562.265060 80.537 79.4691
10638.803587 80.139 76.0624
10715.896743 79.716 73.0868
10793.548548 79.283 70.5073
10871.763050 78.855 68.2678
10950.544327 78.446 66.2961
11029.896485 78.067 64.5117
11109.823662 77.725 62.8350
11190.330024 77.424 61.1940
11271.419768 77.163 59.5297
11353.097122 76.939 57.7970
11435.366344 76.748 55.9634
11518.231722 76.583 54.0062
11601.697577 76.438 51.9101
11685.768261 76.309 49.6643
11770.448155 76.190 47.2609
11855.741674 76.077 44.6939
11941.653265 75.967 41.9582
12028.187408 75.855 39.0500
12115.348612 75.737 35.9670
12203.141422 75.611 32.7095
12291.570415 75.471 29.2808
12380.640201 75.313 25.6888
12470.355424 75.132 21.9472
12560.720760 74.925 18.0753
12651.740920 74.688 14.0982
12743.420650 74.419 10.0457
12835.764729 74.116 5.9493
12928.777972 73.784 1.8391
13022.465227 73.426 -2.2599
13116.831378 73.049 -6.3317
13211.881345 72.666 -10.3726
13307.620084 72.289 -14.3941
13404.052584 71.936 -18.4237
13501.183875 71.622 -22.5054
13599.019019 71.366 -26.6962
13697.563116 71.180 -31.0621
13796.821305 71.071 -35.6700
13896.798760 71.040 -40.5814
13997.500692 71.079 -45.8450
14098.932352 71.174 -51.4920
14201.099028 71.308 -57.5343
14304.006046 71.463 -63.9640
14407.658770 71.620 -70.7542
14512.062604 71.765 -77.8619
14617.222992 71.888 -85.2319
14723.145416 71.981 -92.8013
14829.835397 72.043 -100.5055
14937.298497 72.078 -108.2861
15045.540320 72.091 -116.0960
15154.566507 72.093 -123.9052
15264.382743 72.094 -131.7020
15374.994752 72.105 -139.4932
15486.408302 72.132 -147.3005
15598.629201 72.179 -155.1567
15711.663298 72.245 -163.0996
15825.516487 72.326 -171.1675
15940.194703 72.414 -179.3941
16055.703925 72.498 172.1934
16172.050174 72.571 163.5764
16289.239516 72.624 154.7440
16407.278061 72.650 145.6917
16526.171961 72.645 136.4184
16645.927415 72.607 126.9254
16766.550667 72.537 117.2120
16888.048005 72.436 107.2759
17010.425762 72.308 97.1113
17133.690320 72.160 86.7078
17257.848103 71.997 76.0497
17382.905584 71.829 65.1166
17508.869284 71.663 53.8823
17635.745768 71.508 42.3170
17763.541652 71.368 30.3894
17892.263597 71.247 18.0683
18021.918315 71.145 5.3260
18152.512564 71.059 -7.8586
18284.053153 70.982 -21.4954
18416.546939 70.904 -35.5757
18550.000830 70.814 -50.0670
18684.421783 70.699 -64.9015
18819.816805 70.549 -79.9687
18956.192956 70.358 -95.1098
19093.557344 70.122 -110.1179
19231.917131 69.848 -124.7471
19371.279531 69.548 -138.7133
19511.651807 69.245 -151.6404
19653.041280 68.971 -162.9067
19795.455318 68.761 -171.5056
19938.901348 68.646 -176.2288
