* Measurement data measured by REW V5.31.3
* Source: EXCL: Headset (USB-C to 3.5mm Headphone Jack Adapter), MICROPHONE (Master Volume), 0, volume: 0.750
* Format: 256k Log Swept Sine, 1 sweep at -12.0 dBFS with no timing reference
* Dated: Apr 7, 2025 5:27:33 PM
* REW Settings:
*  C-weighting compensation: Off
*  Target level: 75.0 dB
* Note: ; 
* Measurement: HD 6XX (Geekeria) L4
* Smoothing: 1/6 octave
* Frequency Step: 96 ppo
* Start Frequency: 20.0 Hz
*
* Freq(Hz) SPL(dB) Phase(degrees)
20.187378 75.860 -99.6166
20.333664 75.879 -99.6970
20.481010 75.906 -99.8023
20.629424 75.942 -99.9271
20.778913 75.989 -100.0670
20.929486 76.047 -100.2197
21.081150 76.116 -100.3849
21.233912 76.196 -100.5644
21.387782 76.286 -100.7605
21.542767 76.383 -100.9755
21.698874 76.485 -101.2103
21.856113 76.590 -101.4634
22.014492 76.694 -101.7310
22.174018 76.796 -102.0069
22.334700 76.893 -102.2834
22.496546 76.985 -102.5517
22.659566 77.071 -102.8041
22.823766 77.151 -103.0347
22.989157 77.226 -103.2406
23.155745 77.297 -103.4230
23.323542 77.366 -103.5874
23.492554 77.433 -103.7434
23.662790 77.500 -103.9034
23.834261 77.567 -104.0813
24.006973 77.633 -104.2904
24.180938 77.698 -104.5416
24.356163 77.761 -104.8419
24.532658 77.821 -105.1928
24.710431 77.875 -105.5904
24.889493 77.923 -106.0259
25.069853 77.964 -106.4862
25.251519 77.998 -106.9558
25.434502 78.025 -107.4187
25.618811 78.046 -107.8599
25.804456 78.062 -108.2674
25.991445 78.075 -108.6330
26.179790 78.087 -108.9535
26.369500 78.098 -109.2302
26.560584 78.111 -109.4687
26.753053 78.126 -109.6773
26.946917 78.143 -109.8663
27.142185 78.161 -110.0457
27.338869 78.181 -110.2248
27.536977 78.203 -110.4113
27.736522 78.225 -110.6108
27.937512 78.249 -110.8272
28.139959 78.273 -111.0634
28.343872 78.300 -111.3211
28.549264 78.329 -111.6018
28.756143 78.361 -111.9063
28.964522 78.397 -112.2348
29.174411 78.437 -112.5867
29.385821 78.481 -112.9598
29.598763 78.529 -113.3502
29.813248 78.579 -113.7527
30.029287 78.632 -114.1609
30.246891 78.688 -114.5682
30.466073 78.745 -114.9688
30.686842 78.803 -115.3582
30.909212 78.864 -115.7340
31.133193 78.926 -116.0963
31.358797 78.991 -116.4470
31.586035 79.057 -116.7893
31.814921 79.127 -117.1272
32.045465 79.198 -117.4643
32.277680 79.273 -117.8033
32.511577 79.351 -118.1459
32.747169 79.433 -118.4926
32.984469 79.518 -118.8427
33.223488 79.608 -119.1948
33.464239 79.701 -119.5470
33.706735 79.798 -119.8968
33.950987 79.898 -120.2414
34.197010 79.999 -120.5776
34.444816 80.101 -120.9021
34.694417 80.202 -121.2119
34.945827 80.302 -121.5050
35.199059 80.399 -121.7811
35.454126 80.495 -122.0418
35.711041 80.587 -122.2915
35.969818 80.677 -122.5367
36.230470 80.765 -122.7852
36.493011 80.851 -123.0456
36.757455 80.935 -123.3253
37.023814 81.016 -123.6299
37.292104 81.096 -123.9615
37.562338 81.172 -124.3190
37.834530 81.246 -124.6977
38.108695 81.317 -125.0903
38.384846 81.386 -125.4880
38.662999 81.452 -125.8818
38.943167 81.517 -126.2643
39.225365 81.581 -126.6304
39.509608 81.644 -126.9776
39.795911 81.708 -127.3068
40.084289 81.773 -127.6209
40.374756 81.839 -127.9241
40.667328 81.905 -128.2207
40.962020 81.972 -128.5141
41.258848 82.039 -128.8066
41.557827 82.105 -129.0985
41.858972 82.170 -129.3894
42.162299 82.233 -129.6777
42.467824 82.294 -129.9621
42.775564 82.353 -130.2417
43.085533 82.410 -130.5172
43.397749 82.465 -130.7905
43.712227 82.518 -131.0654
44.028983 82.570 -131.3469
44.348036 82.619 -131.6400
44.669400 82.666 -131.9490
44.993093 82.710 -132.2761
45.319131 82.751 -132.6209
45.647532 82.787 -132.9801
45.978313 82.819 -133.3485
46.311491 82.846 -133.7204
46.647083 82.870 -134.0904
46.985107 82.890 -134.4544
47.325581 82.907 -134.8096
47.668521 82.922 -135.1542
48.013947 82.935 -135.4865
48.361876 82.947 -135.8044
48.712326 82.957 -136.1061
49.065315 82.967 -136.3903
49.420863 82.976 -136.6574
49.778987 82.986 -136.9096
50.139706 82.998 -137.1517
50.503039 83.010 -137.3897
50.869005 83.025 -137.6301
51.237623 83.041 -137.8791
51.608912 83.058 -138.1409
51.982891 83.076 -138.4174
52.359580 83.094 -138.7079
52.739000 83.113 -139.0090
53.121168 83.130 -139.3159
53.506106 83.147 -139.6235
53.893833 83.163 -139.9277
54.284370 83.178 -140.2264
54.677737 83.193 -140.5197
55.073955 83.208 -140.8094
55.473043 83.224 -141.0985
55.875024 83.242 -141.3902
56.279917 83.262 -141.6865
56.687745 83.285 -141.9886
57.098527 83.313 -142.2957
57.512287 83.345 -142.6058
57.929045 83.382 -142.9161
58.348822 83.424 -143.2237
58.771642 83.467 -143.5262
59.197525 83.511 -143.8208
59.626495 83.554 -144.1048
60.058573 83.592 -144.3753
60.493782 83.626 -144.6297
60.932145 83.655 -144.8671
61.373685 83.680 -145.0895
61.818424 83.703 -145.3013
62.266386 83.725 -145.5089
62.717593 83.749 -145.7189
63.172071 83.775 -145.9371
63.629842 83.805 -146.1678
64.090930 83.838 -146.4128
64.555359 83.875 -146.6725
65.023154 83.915 -146.9454
65.494339 83.958 -147.2290
65.968938 84.003 -147.5202
66.446976 84.050 -147.8161
66.928478 84.098 -148.1142
67.413469 84.146 -148.4126
67.901975 84.195 -148.7103
68.394021 84.243 -149.0065
68.889632 84.290 -149.3015
69.388835 84.336 -149.5953
69.891655 84.379 -149.8884
70.398118 84.420 -150.1811
70.908252 84.459 -150.4735
71.422083 84.494 -150.7661
71.939636 84.527 -151.0589
72.460941 84.557 -151.3520
72.986023 84.584 -151.6450
73.514909 84.608 -151.9369
74.047629 84.631 -152.2265
74.584208 84.651 -152.5125
75.124676 84.669 -152.7938
75.669061 84.685 -153.0699
76.217390 84.700 -153.3410
76.769692 84.712 -153.6080
77.325997 84.722 -153.8724
77.886333 84.731 -154.1358
78.450730 84.738 -154.3996
79.019216 84.745 -154.6649
79.591822 84.750 -154.9320
80.168577 84.754 -155.2014
80.749512 84.758 -155.4729
81.334656 84.761 -155.7464
81.924040 84.764 -156.0217
82.517696 84.766 -156.2984
83.115653 84.769 -156.5762
83.717943 84.771 -156.8550
84.324598 84.773 -157.1346
84.935649 84.775 -157.4148
85.551128 84.777 -157.6953
86.171066 84.779 -157.9757
86.795497 84.781 -158.2554
87.424453 84.782 -158.5343
88.057967 84.783 -158.8120
88.696071 84.783 -159.0886
89.338800 84.783 -159.3644
89.986185 84.781 -159.6399
90.638262 84.779 -159.9155
91.295065 84.777 -160.1913
91.956626 84.774 -160.4676
92.622982 84.770 -160.7440
93.294166 84.766 -161.0202
93.970214 84.762 -161.2957
94.651161 84.757 -161.5704
95.337042 84.753 -161.8442
96.027894 84.748 -162.1174
96.723752 84.743 -162.3901
97.424652 84.739 -162.6626
98.130631 84.735 -162.9347
98.841726 84.732 -163.2062
99.557974 84.729 -163.4764
100.279412 84.726 -163.7451
101.006078 84.724 -164.0121
101.738010 84.723 -164.2773
102.475245 84.723 -164.5405
103.217823 84.724 -164.8015
103.965782 84.725 -165.0601
104.719161 84.727 -165.3162
105.477999 84.731 -165.5700
106.242336 84.736 -165.8224
107.012212 84.741 -166.0745
107.787666 84.749 -166.3275
108.568740 84.757 -166.5820
109.355474 84.766 -166.8379
110.147909 84.775 -167.0944
110.946086 84.785 -167.3507
111.750047 84.796 -167.6057
112.559834 84.806 -167.8585
113.375489 84.816 -168.1080
114.197055 84.825 -168.3529
115.024574 84.835 -168.5923
115.858089 84.844 -168.8253
116.697645 84.853 -169.0519
117.543284 84.861 -169.2729
118.395051 84.869 -169.4898
119.252990 84.877 -169.7047
120.117147 84.885 -169.9196
120.987565 84.892 -170.1362
121.864291 84.900 -170.3552
122.747370 84.906 -170.5767
123.636848 84.912 -170.8005
124.532771 84.917 -171.0262
125.435187 84.921 -171.2534
126.344142 84.924 -171.4813
127.259684 84.926 -171.7088
128.181860 84.927 -171.9350
129.110718 84.927 -172.1585
130.046308 84.926 -172.3789
130.988677 84.924 -172.5958
131.937875 84.921 -172.8096
132.893951 84.917 -173.0208
133.856956 84.911 -173.2297
134.826938 84.905 -173.4368
135.803950 84.898 -173.6420
136.788041 84.889 -173.8454
137.779264 84.880 -174.0470
138.777669 84.870 -174.2470
139.783309 84.859 -174.4453
140.796237 84.847 -174.6420
141.816504 84.834 -174.8370
142.844165 84.820 -175.0304
143.879273 84.805 -175.2223
144.921881 84.790 -175.4127
145.972045 84.773 -175.6019
147.029819 84.755 -175.7896
148.095257 84.737 -175.9758
149.168417 84.718 -176.1601
150.249353 84.698 -176.3421
151.338121 84.677 -176.5217
152.434780 84.656 -176.6986
153.539385 84.635 -176.8731
154.651995 84.614 -177.0456
155.772667 84.592 -177.2163
156.901460 84.571 -177.3855
158.038432 84.550 -177.5534
159.183644 84.529 -177.7198
160.337154 84.508 -177.8848
161.499023 84.488 -178.0482
162.669312 84.468 -178.2101
163.848081 84.448 -178.3707
165.035392 84.429 -178.5302
166.231306 84.410 -178.6888
167.435887 84.391 -178.8471
168.649196 84.372 -179.0051
169.871298 84.353 -179.1630
171.102255 84.334 -179.3205
172.342133 84.315 -179.4775
173.590995 84.295 -179.6340
174.848907 84.276 -179.7900
176.115934 84.257 -179.9458
177.392143 84.237 179.8986
178.677599 84.217 179.7434
179.972371 84.197 179.5892
181.276525 84.177 179.4366
182.590129 84.155 179.2862
183.913252 84.133 179.1382
185.245964 84.110 178.9928
186.588332 84.086 178.8502
187.940428 84.062 178.7104
189.302322 84.036 178.5735
190.674085 84.010 178.4396
192.055788 83.983 178.3087
193.447503 83.956 178.1812
194.849303 83.928 178.0573
196.261262 83.900 177.9370
197.683452 83.872 177.8204
199.115948 83.844 177.7066
200.558824 83.815 177.5944
202.012156 83.787 177.4824
203.476019 83.759 177.3690
204.950490 83.731 177.2530
206.435646 83.704 177.1340
207.931564 83.677 177.0122
209.438322 83.650 176.8884
210.955998 83.624 176.7637
212.484672 83.598 176.6397
214.024424 83.573 176.5181
215.575333 83.549 176.4006
217.137481 83.526 176.2885
218.710948 83.504 176.1829
220.295818 83.483 176.0840
221.892172 83.463 175.9917
223.500094 83.444 175.9055
225.119668 83.426 175.8246
226.750978 83.409 175.7483
228.394109 83.394 175.6758
230.049147 83.379 175.6063
231.716178 83.366 175.5387
233.395289 83.354 175.4719
235.086567 83.342 175.4048
236.790102 83.332 175.3368
238.505980 83.322 175.2676
240.234293 83.312 175.1978
241.975130 83.303 175.1281
243.728581 83.295 175.0593
245.494739 83.287 174.9921
247.273695 83.280 174.9269
249.065542 83.273 174.8638
250.870374 83.266 174.8026
252.688284 83.260 174.7432
254.519367 83.254 174.6852
256.363720 83.248 174.6284
258.221437 83.242 174.5727
260.092616 83.236 174.5182
261.977354 83.231 174.4647
263.875750 83.225 174.4120
265.787903 83.218 174.3596
267.713911 83.212 174.3072
269.653877 83.205 174.2540
271.607900 83.197 174.1996
273.576083 83.189 174.1438
275.558528 83.181 174.0868
277.555338 83.173 174.0292
279.566619 83.164 173.9717
281.592474 83.155 173.9156
283.633009 83.147 173.8618
285.688331 83.139 173.8109
287.758546 83.132 173.7631
289.843763 83.125 173.7180
291.944090 83.119 173.6747
294.059638 83.114 173.6330
296.190515 83.109 173.5927
298.336833 83.106 173.5543
300.498705 83.103 173.5187
302.676243 83.101 173.4868
304.869559 83.100 173.4593
307.078770 83.099 173.4365
309.303989 83.098 173.4185
311.545334 83.097 173.4050
313.802919 83.097 173.3951
316.076865 83.096 173.3877
318.367288 83.095 173.3818
320.674309 83.094 173.3767
322.998047 83.093 173.3716
325.338624 83.092 173.3664
327.696162 83.090 173.3609
330.070783 83.087 173.3554
332.462612 83.084 173.3504
334.871773 83.081 173.3463
337.298392 83.076 173.3436
339.742595 83.071 173.3428
342.204510 83.065 173.3441
344.684265 83.058 173.3476
347.181989 83.049 173.3531
349.697813 83.040 173.3601
352.231868 83.029 173.3680
354.784285 83.017 173.3763
357.355198 83.005 173.3846
359.944741 82.991 173.3924
362.553049 82.977 173.3996
365.180258 82.963 173.4060
367.826505 82.948 173.4114
370.491927 82.932 173.4159
373.176665 82.917 173.4197
375.880856 82.901 173.4231
378.604644 82.885 173.4269
381.348169 82.868 173.4316
384.111575 82.852 173.4380
386.895006 82.835 173.4465
389.698607 82.818 173.4575
392.522524 82.800 173.4710
395.366904 82.783 173.4874
398.231895 82.764 173.5068
401.117648 82.745 173.5294
404.024312 82.725 173.5555
406.952038 82.705 173.5853
409.900981 82.683 173.6185
412.871292 82.660 173.6549
415.863128 82.636 173.6938
418.876643 82.611 173.7347
421.911996 82.584 173.7768
424.969344 82.556 173.8194
428.048847 82.527 173.8620
431.150666 82.496 173.9042
434.274961 82.463 173.9459
437.421897 82.430 173.9872
440.591636 82.395 174.0283
443.784345 82.358 174.0698
447.000189 82.322 174.1121
450.239337 82.284 174.1556
453.501956 82.246 174.2009
456.788219 82.207 174.2482
460.098294 82.169 174.2975
463.432356 82.131 174.3491
466.790578 82.093 174.4023
470.173135 82.056 174.4567
473.580203 82.019 174.5117
477.011961 81.982 174.5664
480.468586 81.947 174.6202
483.950259 81.912 174.6725
487.457163 81.877 174.7230
490.989478 81.843 174.7717
494.547390 81.811 174.8188
498.131084 81.779 174.8651
501.740748 81.748 174.9117
505.376568 81.719 174.9600
509.038735 81.691 175.0114
512.727439 81.666 175.0671
516.442874 81.642 175.1279
520.185232 81.621 175.1937
523.954708 81.601 175.2638
527.751500 81.585 175.3369
531.575805 81.571 175.4117
535.427822 81.559 175.4871
539.307753 81.550 175.5621
543.215800 81.544 175.6362
547.152165 81.539 175.7091
551.117055 81.537 175.7809
555.110677 81.538 175.8517
559.133237 81.540 175.9217
563.184947 81.544 175.9909
567.266018 81.551 176.0595
571.376661 81.558 176.1276
575.517092 81.567 176.1956
579.687526 81.577 176.2635
583.888181 81.587 176.3312
588.119275 81.597 176.3983
592.381030 81.608 176.4642
596.673667 81.618 176.5283
600.997410 81.628 176.5904
605.352485 81.636 176.6502
609.739119 81.644 176.7079
614.157540 81.651 176.7639
618.607979 81.656 176.8187
623.090667 81.661 176.8728
627.605839 81.664 176.9266
632.153730 81.665 176.9804
636.734576 81.666 177.0343
641.348617 81.666 177.0880
645.996094 81.665 177.1409
650.677248 81.663 177.1921
655.392323 81.660 177.2404
660.141566 81.657 177.2843
664.925224 81.653 177.3226
669.743546 81.648 177.3543
674.596784 81.642 177.3786
679.485191 81.635 177.3952
684.409020 81.627 177.4042
689.368530 81.617 177.4059
694.363979 81.605 177.4010
699.395626 81.591 177.3906
704.463736 81.574 177.3760
709.568570 81.555 177.3589
714.710396 81.533 177.3414
719.889483 81.507 177.3256
725.106099 81.479 177.3138
730.360516 81.447 177.3078
735.653010 81.413 177.3092
740.983855 81.376 177.3190
746.353329 81.336 177.3379
751.761713 81.294 177.3658
757.209288 81.250 177.4022
762.696339 81.204 177.4465
768.223151 81.155 177.4980
773.790013 81.105 177.5568
779.397214 81.053 177.6237
785.045047 81.000 177.7002
790.733808 80.944 177.7886
796.463791 80.888 177.8918
802.235296 80.831 178.0128
808.048623 80.774 178.1544
813.904077 80.717 178.3187
819.801961 80.662 178.5067
825.742584 80.610 178.7173
831.726255 80.562 178.9478
837.753287 80.519 179.1933
843.823992 80.480 179.4475
849.938689 80.448 179.7032
856.097695 80.421 179.9533
862.301332 80.400 -179.8087
868.549922 80.383 -179.5877
874.843793 80.371 -179.3869
881.183272 80.362 -179.2081
887.568689 80.356 -179.0515
894.000378 80.351 -178.9166
900.478673 80.348 -178.8022
907.003913 80.346 -178.7067
913.576437 80.345 -178.6283
920.196588 80.344 -178.5647
926.864712 80.343 -178.5138
933.581156 80.343 -178.4736
940.346270 80.344 -178.4424
947.160407 80.345 -178.4185
954.023921 80.347 -178.4009
960.937172 80.350 -178.3885
967.900519 80.354 -178.3803
974.914325 80.358 -178.3753
981.978956 80.364 -178.3724
989.094780 80.371 -178.3708
996.262169 80.380 -178.3694
1003.481495 80.390 -178.3676
1010.753136 80.401 -178.3645
1018.077470 80.413 -178.3595
1025.454879 80.427 -178.3521
1032.885748 80.443 -178.3418
1040.370463 80.460 -178.3286
1047.909417 80.478 -178.3128
1055.503000 80.498 -178.2948
1063.151610 80.519 -178.2755
1070.855645 80.542 -178.2557
1078.615506 80.565 -178.2363
1086.431599 80.589 -178.2184
1094.304330 80.613 -178.2027
1102.234110 80.638 -178.1899
1110.221353 80.663 -178.1805
1118.266475 80.687 -178.1748
1126.369895 80.711 -178.1726
1134.532035 80.735 -178.1742
1142.753322 80.758 -178.1795
1151.034184 80.780 -178.1883
1159.375052 80.802 -178.2005
1167.776361 80.822 -178.2153
1176.238550 80.840 -178.2322
1184.762060 80.857 -178.2498
1193.347334 80.872 -178.2666
1201.994821 80.885 -178.2803
1210.704971 80.896 -178.2885
1219.478238 80.906 -178.2884
1228.315080 80.914 -178.2775
1237.215957 80.921 -178.2540
1246.181334 80.927 -178.2170
1255.211678 80.933 -178.1664
1264.307459 80.939 -178.1028
1273.469152 80.946 -178.0267
1282.697235 80.952 -177.9389
1291.992188 80.960 -177.8399
1301.354495 80.967 -177.7301
1310.784647 80.976 -177.6102
1320.283132 80.985 -177.4809
1329.850448 80.995 -177.3431
1339.487093 81.006 -177.1981
1349.193569 81.019 -177.0473
1358.970381 81.032 -176.8921
1368.818041 81.047 -176.7335
1378.737061 81.064 -176.5721
1388.727958 81.081 -176.4077
1398.791253 81.100 -176.2393
1408.927471 81.121 -176.0660
1419.137140 81.143 -175.8870
1429.420793 81.169 -175.7027
1439.778965 81.196 -175.5145
1450.212197 81.227 -175.3248
1460.721033 81.261 -175.1360
1471.306019 81.297 -174.9500
1481.967709 81.334 -174.7677
1492.706658 81.374 -174.5891
1503.523426 81.413 -174.4135
1514.418576 81.453 -174.2403
1525.392678 81.493 -174.0685
1536.446302 81.532 -173.8974
1547.580025 81.569 -173.7261
1558.794428 81.604 -173.5532
1570.090095 81.637 -173.3771
1581.467615 81.666 -173.1953
1592.927581 81.692 -173.0055
1604.470591 81.715 -172.8054
1616.097246 81.734 -172.5930
1627.808153 81.750 -172.3667
1639.603922 81.764 -172.1257
1651.485168 81.775 -171.8697
1663.452510 81.784 -171.5990
1675.506573 81.792 -171.3146
1687.647984 81.799 -171.0185
1699.877377 81.806 -170.7135
1712.195390 81.814 -170.4042
1724.602663 81.823 -170.0959
1737.099845 81.832 -169.7952
1749.687587 81.842 -169.5083
1762.366544 81.852 -169.2397
1775.137379 81.860 -168.9915
1788.000756 81.867 -168.7632
1800.957346 81.871 -168.5515
1814.007826 81.871 -168.3509
1827.152874 81.867 -168.1551
1840.393177 81.859 -167.9569
1853.729425 81.847 -167.7502
1867.162312 81.832 -167.5299
1880.692540 81.813 -167.2930
1894.320813 81.792 -167.0384
1908.047843 81.769 -166.7662
1921.874344 81.744 -166.4779
1935.801038 81.719 -166.1753
1949.828650 81.693 -165.8609
1963.957912 81.668 -165.5374
1978.189561 81.642 -165.2086
1992.524338 81.618 -164.8796
2006.962991 81.594 -164.5557
2021.506272 81.571 -164.2426
2036.154940 81.549 -163.9450
2050.909758 81.526 -163.6665
2065.771495 81.504 -163.4090
2080.740927 81.480 -163.1724
2095.818833 81.454 -162.9549
2111.006001 81.426 -162.7526
2126.303220 81.396 -162.5600
2141.711290 81.363 -162.3707
2157.231013 81.328 -162.1778
2172.863198 81.291 -161.9754
2188.608660 81.253 -161.7587
2204.468221 81.216 -161.5249
2220.442706 81.180 -161.2734
2236.532950 81.147 -161.0055
2252.739789 81.118 -160.7252
2269.064070 81.093 -160.4382
2285.506644 81.074 -160.1519
2302.068367 81.061 -159.8746
2318.750104 81.053 -159.6140
2335.552723 81.051 -159.3772
2352.477101 81.053 -159.1701
2369.524119 81.060 -158.9964
2386.694668 81.068 -158.8573
2403.989641 81.079 -158.7507
2421.409941 81.089 -158.6715
2438.956476 81.100 -158.6127
2456.630160 81.110 -158.5670
2474.431915 81.121 -158.5278
2492.362668 81.132 -158.4908
2510.423356 81.145 -158.4537
2528.614918 81.160 -158.4158
2546.938304 81.178 -158.3773
2565.394469 81.198 -158.3387
2583.984375 81.221 -158.3007
2602.708991 81.246 -158.2634
2621.569293 81.275 -158.2260
2640.566265 81.306 -158.1870
2659.700897 81.340 -158.1448
2678.974186 81.378 -158.0984
2698.387137 81.418 -158.0480
2717.940763 81.462 -157.9945
2737.636082 81.510 -157.9397
2757.474121 81.561 -157.8857
2777.455915 81.616 -157.8338
2797.582506 81.673 -157.7845
2817.854942 81.733 -157.7377
2838.274281 81.796 -157.6931
2858.841586 81.861 -157.6513
2879.557931 81.929 -157.6143
2900.424394 81.999 -157.5858
2921.442065 82.070 -157.5703
2942.612039 82.142 -157.5725
2963.935418 82.214 -157.5957
2985.413316 82.283 -157.6412
3007.046852 82.349 -157.7076
3028.837153 82.411 -157.7906
3050.785356 82.466 -157.8845
3072.892604 82.516 -157.9829
3095.160050 82.560 -158.0806
3117.588856 82.599 -158.1744
3140.180190 82.632 -158.2641
3162.935230 82.660 -158.3518
3185.855163 82.682 -158.4411
3208.941182 82.699 -158.5358
3232.194493 82.710 -158.6383
3255.616307 82.713 -158.7498
3279.207844 82.710 -158.8700
3302.970336 82.698 -158.9970
3326.905021 82.678 -159.1274
3351.013146 82.650 -159.2567
3375.295969 82.613 -159.3799
3399.754755 82.568 -159.4925
3424.390779 82.516 -159.5907
3449.205326 82.458 -159.6726
3474.199690 82.395 -159.7382
3499.375173 82.328 -159.7888
3524.733088 82.259 -159.8270
3550.274757 82.187 -159.8548
3576.001511 82.113 -159.8736
3601.914692 82.037 -159.8834
3628.015651 81.961 -159.8828
3654.305748 81.884 -159.8691
3680.786354 81.807 -159.8390
3707.458849 81.731 -159.7897
3734.324624 81.657 -159.7192
3761.385080 81.586 -159.6267
3788.641627 81.519 -159.5121
3816.095686 81.457 -159.3755
3843.748688 81.400 -159.2175
3871.602076 81.349 -159.0380
3899.657300 81.303 -158.8366
3927.915825 81.264 -158.6124
3956.379122 81.232 -158.3638
3985.048676 81.206 -158.0886
4013.925981 81.187 -157.7838
4043.012544 81.174 -157.4463
4072.309879 81.170 -157.0728
4101.819515 81.173 -156.6606
4131.542990 81.184 -156.2082
4161.481854 81.205 -155.7159
4191.637667 81.237 -155.1860
4222.012001 81.279 -154.6231
4252.606441 81.333 -154.0347
4283.422580 81.400 -153.4308
4314.462026 81.480 -152.8246
4345.726396 81.574 -152.2310
4377.217321 81.680 -151.6673
4408.936442 81.798 -151.1515
4440.885413 81.928 -150.7022
4473.065899 82.068 -150.3376
4505.479579 82.216 -150.0741
4538.128141 82.369 -149.9256
4571.013288 82.525 -149.9019
4604.136735 82.681 -150.0082
4637.500207 82.835 -150.2455
4671.105446 82.985 -150.6111
4704.954201 83.130 -151.1003
4739.048239 83.267 -151.7081
4773.389336 83.396 -152.4294
4807.979283 83.516 -153.2594
4842.819883 83.625 -154.1929
4877.912952 83.723 -155.2240
4913.260320 83.808 -156.3455
4948.863830 83.880 -157.5493
4984.725337 83.937 -158.8266
5020.846712 83.979 -160.1681
5057.229836 84.003 -161.5637
5093.876609 84.010 -163.0021
5130.788938 83.998 -164.4700
5167.968750 83.966 -165.9515
5205.417982 83.912 -167.4278
5243.138586 83.837 -168.8775
5281.132530 83.739 -170.2764
5319.401793 83.621 -171.5992
5357.948371 83.482 -172.8208
5396.774274 83.327 -173.9175
5435.881525 83.158 -174.8690
5475.272163 82.979 -175.6599
5514.948243 82.795 -176.2807
5554.911831 82.611 -176.7288
5595.165012 82.432 -177.0090
5635.709884 82.263 -177.1336
5676.548561 82.107 -177.1219
5717.683172 81.968 -176.9981
5759.115861 81.846 -176.7900
5800.848789 81.744 -176.5255
5842.884130 81.659 -176.2309
5885.224077 81.591 -175.9289
5927.870837 81.536 -175.6378
5970.826633 81.493 -175.3716
6014.093704 81.458 -175.1399
6057.674306 81.429 -174.9486
6101.570711 81.403 -174.8000
6145.785208 81.376 -174.6937
6190.320101 81.348 -174.6264
6235.177712 81.315 -174.5931
6280.360380 81.276 -174.5866
6325.870460 81.229 -174.5980
6371.710325 81.173 -174.6166
6417.882365 81.108 -174.6300
6464.388986 81.032 -174.6245
6511.232613 80.946 -174.5856
6558.415689 80.852 -174.4994
6605.940673 80.749 -174.3528
6653.810042 80.641 -174.1352
6702.026292 80.529 -173.8394
6750.591937 80.418 -173.4629
6799.509509 80.310 -173.0088
6848.781558 80.210 -172.4875
6898.410653 80.121 -171.9171
6948.399380 80.047 -171.3234
6998.750346 79.990 -170.7391
7049.466176 79.952 -170.2015
7100.549514 79.932 -169.7500
7152.003023 79.929 -169.4227
7203.829385 79.940 -169.2529
7256.031302 79.961 -169.2673
7308.611496 79.986 -169.4842
7361.572708 80.010 -169.9138
7414.917698 80.027 -170.5577
7468.649249 80.030 -171.4103
7522.770160 80.015 -172.4592
7577.283253 79.976 -173.6863
7632.191371 79.906 -175.0683
7687.497376 79.803 -176.5767
7743.204151 79.661 -178.1775
7799.314600 79.477 -179.8299
7855.831649 79.247 178.5154
7912.758244 78.968 176.9194
7970.097352 78.639 175.4592
8027.851962 78.260 174.2341
8086.025087 77.832 173.3762
8144.619758 77.361 173.0646
8203.639030 76.856 173.5480
8263.085980 76.335 175.1740
8322.963708 75.822 178.4186
8383.275334 75.351 -176.1263
8444.024002 74.964 -167.9317
8505.212881 74.703 -157.0623
8566.845160 74.601 -144.8308
8628.924051 74.671 -133.4329
8691.452792 74.899 -124.4409
8754.434642 75.255 -118.1311
8817.872884 75.701 -114.0443
8881.770826 76.202 -111.5885
8946.131799 76.728 -110.2755
9010.959157 77.262 -109.7539
9076.256282 77.792 -109.7831
9142.026576 78.314 -110.2022
9208.273470 78.825 -110.9068
9275.000415 79.325 -111.8321
9342.210891 79.817 -112.9413
9409.908403 80.302 -114.2180
9478.096478 80.780 -115.6601
9546.778672 81.253 -117.2755
9615.958566 81.718 -119.0780
9685.639765 82.175 -121.0846
9755.825904 82.619 -123.3125
9826.520640 83.047 -125.7767
9897.727659 83.453 -128.4884
9969.450674 83.831 -131.4528
10041.693423 84.176 -134.6680
10114.459673 84.480 -138.1239
10187.753217 84.737 -141.8019
10261.577877 84.942 -145.6740
10335.937500 85.090 -149.7037
10410.835964 85.175 -153.8468
10486.277173 85.196 -158.0532
10562.265060 85.152 -162.2696
10638.803587 85.044 -166.4428
10715.896743 84.874 -170.5229
10793.548548 84.648 -174.4667
10871.763050 84.370 -178.2400
10950.544327 84.049 178.1805
11029.896485 83.692 174.8065
11109.823662 83.307 171.6385
11190.330024 82.902 168.6657
11271.419768 82.484 165.8690
11353.097122 82.059 163.2229
11435.366344 81.632 160.6993
11518.231722 81.205 158.2721
11601.697577 80.779 155.9209
11685.768261 80.353 153.6338
11770.448155 79.926 151.4082
11855.741674 79.495 149.2486
11941.653265 79.062 147.1614
12028.187408 78.628 145.1494
12115.348612 78.196 143.2050
12203.141422 77.774 141.3065
12291.570415 77.368 139.4167
12380.640201 76.986 137.4836
12470.355424 76.633 135.4446
12560.720760 76.314 133.2322
12651.740920 76.029 130.7792
12743.420650 75.774 128.0261
12835.764729 75.544 124.9244
12928.777972 75.329 121.4401
13022.465227 75.118 117.5523
13116.831378 74.902 113.2511
13211.881345 74.672 108.5316
13307.620084 74.423 103.3874
13404.052584 74.150 97.8033
13501.183875 73.852 91.7442
13599.019019 73.532 85.1387
13697.563116 73.193 77.8447
13796.821305 72.844 69.5723
13896.798760 72.494 59.6839
13997.500692 72.158 46.5989
14098.932352 71.852 25.7198
14201.099028 71.593 -15.3580
14304.006046 71.396 -68.8171
14407.658770 71.271 -98.9968
14512.062604 71.220 -115.6136
14617.222992 71.240 -127.2236
14723.145416 71.319 -136.6682
14829.835397 71.440 -145.0227
14937.298497 71.587 -152.7693
15045.540320 71.741 -160.1524
15154.566507 71.888 -167.3057
15264.382743 72.017 -174.3045
15374.994752 72.123 178.8091
15486.408302 72.202 172.0105
15598.629201 72.257 165.2823
15711.663298 72.294 158.6064
15825.516487 72.320 151.9583
15940.194703 72.342 145.3047
16055.703925 72.367 138.6041
16172.050174 72.398 131.8113
16289.239516 72.433 124.8809
16407.278061 72.469 117.7737
16526.171961 72.500 110.4586
16645.927415 72.517 102.9146
16766.550667 72.513 95.1303
16888.048005 72.479 87.1035
17010.425762 72.408 78.8398
17133.690320 72.297 70.3519
17257.848103 72.140 61.6570
17382.905584 71.935 52.7763
17508.869284 71.682 43.7314
17635.745768 71.381 34.5441
17763.541652 71.034 25.2352
17892.263597 70.644 15.8233
18021.918315 70.214 6.3243
18152.512564 69.752 -3.2549
18284.053153 69.268 -12.9239
18416.546939 68.775 -22.7237
18550.000830 68.294 -32.7457
18684.421783 67.850 -43.1429
18819.816805 67.468 -54.1131
18956.192956 67.169 -65.8173
19093.557344 66.966 -78.2075
19231.917131 66.854 -90.8434
19371.279531 66.816 -102.8959
19511.651807 66.825 -113.4324
19653.041280 66.857 -121.7385
19795.455318 66.890 -127.4139
19938.901348 66.910 -130.2817
