* Measurement data measured by REW V5.31.3
* Source: EXCL: Headset (USB-C to 3.5mm Headphone Jack Adapter), MICROPHONE (Master Volume), 0, volume: 0.750
* Format: 256k Log Swept Sine, 1 sweep at -12.0 dBFS with no timing reference
* Dated: Apr 1, 2025 10:26:01 PM
* REW Settings:
*  C-weighting compensation: Off
*  Target level: 75.0 dB
* Note: ; 
* Measurement: HD6XX (Soulwit) L4
* Smoothing: 1/6 octave
* Frequency Step: 96 ppo
* Start Frequency: 20.0 Hz
*
* Freq(Hz) SPL(dB) Phase(degrees)
20.033247 82.699 -90.5605
20.178416 82.775 -90.9725
20.324637 82.851 -91.3881
20.471918 82.926 -91.8029
20.620266 83.003 -92.2145
20.769689 83.082 -92.6217
20.920195 83.164 -93.0250
21.071791 83.250 -93.4264
21.224486 83.339 -93.8292
21.378287 83.431 -94.2372
21.533203 83.527 -94.6545
21.689242 83.624 -95.0846
21.846411 83.722 -95.5297
22.004719 83.818 -95.9902
22.164174 83.912 -96.4651
22.324785 84.002 -96.9506
22.486559 84.086 -97.4417
22.649506 84.164 -97.9318
22.813634 84.235 -98.4136
22.978951 84.298 -98.8798
23.145466 84.354 -99.3239
23.313188 84.403 -99.7407
23.482124 84.447 -100.1276
23.652286 84.486 -100.4838
23.823680 84.522 -100.8110
23.996316 84.555 -101.1132
24.170203 84.587 -101.3959
24.345351 84.618 -101.6656
24.521767 84.649 -101.9288
24.699462 84.681 -102.1917
24.878444 84.712 -102.4592
25.058724 84.744 -102.7350
25.240310 84.776 -103.0217
25.423211 84.809 -103.3204
25.607438 84.841 -103.6317
25.793000 84.875 -103.9557
25.979907 84.909 -104.2926
26.168168 84.943 -104.6422
26.357794 84.979 -105.0048
26.548793 85.014 -105.3804
26.741176 85.051 -105.7684
26.934954 85.087 -106.1681
27.130136 85.123 -106.5775
27.326732 85.159 -106.9938
27.524753 85.194 -107.4138
27.724208 85.228 -107.8333
27.925110 85.262 -108.2485
28.127466 85.296 -108.6559
28.331290 85.329 -109.0531
28.536590 85.364 -109.4388
28.743378 85.401 -109.8134
28.951664 85.440 -110.1782
29.161460 85.482 -110.5361
29.372776 85.526 -110.8901
29.585623 85.574 -111.2437
29.800013 85.624 -111.5992
30.015956 85.677 -111.9587
30.233464 85.733 -112.3229
30.452548 85.791 -112.6912
30.673220 85.851 -113.0625
30.895490 85.913 -113.4349
31.119372 85.978 -113.8067
31.344876 86.046 -114.1759
31.572014 86.117 -114.5413
31.800797 86.191 -114.9022
32.031239 86.269 -115.2583
32.263351 86.351 -115.6100
32.497144 86.436 -115.9576
32.732632 86.525 -116.3018
32.969826 86.617 -116.6429
33.208739 86.712 -116.9814
33.449383 86.810 -117.3177
33.691771 86.910 -117.6520
33.935916 87.011 -117.9846
34.181829 87.113 -118.3161
34.429525 87.216 -118.6467
34.679015 87.319 -118.9769
34.930314 87.422 -119.3063
35.183433 87.523 -119.6345
35.438387 87.623 -119.9609
35.695188 87.721 -120.2845
35.953850 87.817 -120.6042
36.214387 87.911 -120.9196
36.476811 88.003 -121.2305
36.741137 88.094 -121.5374
37.007378 88.181 -121.8412
37.275549 88.267 -122.1430
37.545663 88.350 -122.4437
37.817734 88.431 -122.7438
38.091777 88.509 -123.0432
38.367806 88.584 -123.3409
38.645835 88.655 -123.6356
38.925879 88.725 -123.9259
39.207952 88.791 -124.2105
39.492069 88.856 -124.4886
39.778244 88.919 -124.7603
40.066494 88.980 -125.0264
40.356832 89.041 -125.2886
40.649275 89.101 -125.5488
40.943836 89.160 -125.8093
41.240532 89.219 -126.0721
41.539378 89.277 -126.3385
41.840389 89.334 -126.6091
42.143582 89.389 -126.8835
42.448972 89.443 -127.1606
42.756574 89.495 -127.4387
43.066406 89.545 -127.7158
43.378483 89.594 -127.9900
43.692822 89.641 -128.2599
44.009438 89.687 -128.5248
44.328348 89.732 -128.7845
44.649570 89.776 -129.0394
44.973119 89.819 -129.2902
45.299013 89.862 -129.5380
45.627268 89.904 -129.7838
45.957902 89.946 -130.0291
46.290932 89.987 -130.2756
46.626375 90.028 -130.5256
46.964249 90.069 -130.7815
47.304571 90.110 -131.0461
47.647360 90.150 -131.3218
47.992632 90.189 -131.6101
48.340407 90.227 -131.9114
48.690701 90.264 -132.2247
49.043534 90.298 -132.5477
49.398924 90.330 -132.8773
49.756889 90.360 -133.2103
50.117447 90.388 -133.5435
50.480619 90.415 -133.8741
50.846423 90.441 -134.2003
51.214877 90.465 -134.5203
51.586001 90.489 -134.8339
51.959814 90.514 -135.1411
52.336336 90.538 -135.4432
52.715587 90.562 -135.7421
53.097586 90.587 -136.0402
53.482353 90.611 -136.3393
53.869908 90.635 -136.6411
54.260272 90.658 -136.9462
54.653464 90.679 -137.2543
55.049506 90.699 -137.5648
55.448417 90.717 -137.8765
55.850219 90.734 -138.1885
56.254933 90.750 -138.4999
56.662579 90.764 -138.8103
57.073180 90.778 -139.1193
57.486755 90.793 -139.4269
57.903328 90.808 -139.7330
58.322919 90.824 -140.0375
58.745551 90.843 -140.3406
59.171246 90.865 -140.6434
59.600025 90.891 -140.9476
60.031911 90.921 -141.2562
60.466927 90.956 -141.5720
60.905096 90.995 -141.8973
61.346439 91.038 -142.2325
61.790981 91.084 -142.5769
62.238744 91.133 -142.9280
62.689751 91.185 -143.2830
63.144027 91.239 -143.6392
63.601595 91.294 -143.9942
64.062478 91.350 -144.3463
64.526701 91.407 -144.6943
64.994288 91.464 -145.0378
65.465264 91.521 -145.3769
65.939652 91.577 -145.7114
66.417478 91.632 -146.0416
66.898766 91.687 -146.3677
67.383542 91.739 -146.6902
67.871831 91.791 -147.0100
68.363659 91.841 -147.3284
68.859050 91.889 -147.6465
69.358031 91.935 -147.9655
69.860628 91.980 -148.2858
70.366867 92.023 -148.6075
70.876774 92.063 -148.9305
71.390376 92.102 -149.2542
71.907700 92.138 -149.5777
72.428773 92.172 -149.9003
72.953622 92.203 -150.2212
73.482274 92.233 -150.5402
74.014757 92.260 -150.8571
74.551098 92.285 -151.1721
75.091326 92.307 -151.4860
75.635469 92.327 -151.7992
76.183555 92.345 -152.1127
76.735612 92.361 -152.4272
77.291670 92.374 -152.7437
77.851757 92.386 -153.0624
78.415903 92.395 -153.3834
78.984137 92.403 -153.7066
79.556489 92.408 -154.0314
80.132988 92.412 -154.3567
80.713665 92.414 -154.6814
81.298549 92.416 -155.0040
81.887672 92.416 -155.3234
82.481064 92.415 -155.6386
83.078756 92.415 -155.9494
83.680778 92.414 -156.2558
84.287164 92.413 -156.5583
84.897943 92.412 -156.8578
85.513149 92.411 -157.1550
86.132812 92.411 -157.4509
86.756966 92.411 -157.7461
87.385643 92.411 -158.0412
88.018875 92.411 -158.3365
88.656696 92.410 -158.6324
89.299139 92.411 -158.9288
89.946238 92.411 -159.2259
90.598025 92.411 -159.5234
91.254536 92.411 -159.8210
91.915804 92.410 -160.1182
92.581864 92.410 -160.4138
93.252750 92.409 -160.7070
93.928498 92.408 -160.9968
94.609143 92.407 -161.2825
95.294719 92.404 -161.5638
95.985264 92.402 -161.8409
96.680813 92.398 -162.1144
97.381402 92.394 -162.3851
98.087068 92.389 -162.6544
98.797847 92.384 -162.9238
99.513777 92.379 -163.1951
100.234895 92.374 -163.4697
100.961238 92.370 -163.7485
101.692845 92.366 -164.0318
102.429753 92.363 -164.3186
103.172002 92.362 -164.6075
103.919628 92.362 -164.8963
104.672673 92.364 -165.1826
105.431174 92.367 -165.4644
106.195172 92.373 -165.7401
106.964706 92.380 -166.0086
107.739816 92.388 -166.2698
108.520543 92.397 -166.5237
109.306928 92.406 -166.7712
110.099011 92.416 -167.0135
110.896834 92.426 -167.2525
111.700438 92.435 -167.4900
112.509866 92.445 -167.7278
113.325158 92.455 -167.9673
114.146359 92.465 -168.2093
114.973511 92.476 -168.4537
115.806656 92.486 -168.7003
116.645839 92.497 -168.9479
117.491103 92.507 -169.1958
118.342492 92.518 -169.4434
119.200050 92.529 -169.6904
120.063823 92.539 -169.9367
120.933855 92.550 -170.1824
121.810191 92.560 -170.4275
122.692878 92.569 -170.6718
123.581962 92.578 -170.9149
124.477487 92.586 -171.1564
125.379503 92.592 -171.3959
126.288054 92.598 -171.6332
127.203189 92.602 -171.8682
128.124956 92.605 -172.1012
129.053402 92.606 -172.3326
129.988577 92.606 -172.5630
130.930527 92.604 -172.7927
131.879304 92.601 -173.0223
132.834956 92.597 -173.2518
133.797533 92.592 -173.4817
134.767085 92.586 -173.7116
135.743663 92.579 -173.9415
136.727317 92.572 -174.1708
137.718100 92.564 -174.3989
138.716062 92.555 -174.6252
139.721255 92.544 -174.8494
140.733733 92.533 -175.0714
141.753548 92.521 -175.2913
142.780753 92.508 -175.5092
143.815401 92.494 -175.7252
144.857546 92.479 -175.9397
145.907244 92.463 -176.1524
146.964548 92.446 -176.3634
148.029514 92.429 -176.5724
149.102197 92.411 -176.7793
150.182652 92.392 -176.9836
151.270938 92.373 -177.1855
152.367109 92.353 -177.3850
153.471224 92.333 -177.5824
154.583340 92.313 -177.7781
155.703515 92.292 -177.9725
156.831807 92.272 -178.1660
157.968274 92.251 -178.3589
159.112978 92.231 -178.5513
160.265976 92.211 -178.7429
161.427329 92.192 -178.9335
162.597098 92.172 -179.1222
163.775344 92.153 -179.3087
164.962128 92.134 -179.4924
166.157511 92.116 -179.6732
167.361557 92.097 -179.8510
168.574328 92.079 179.9738
169.795887 92.060 179.8007
171.026298 92.042 179.6293
172.265625 92.023 179.4595
173.513933 92.005 179.2910
174.771286 91.986 179.1241
176.037751 91.968 178.9589
177.313393 91.949 178.7952
178.598279 91.931 178.6332
179.892476 91.912 178.4727
181.196051 91.893 178.3137
182.509072 91.873 178.1563
183.831608 91.852 178.0010
185.163728 91.831 177.8481
186.505500 91.809 177.6980
187.856996 91.786 177.5508
189.218285 91.762 177.4065
190.589439 91.737 177.2650
191.970529 91.711 177.1257
193.361626 91.685 176.9886
194.762804 91.658 176.8532
196.174136 91.631 176.7188
197.595694 91.604 176.5847
199.027554 91.578 176.4500
200.469790 91.551 176.3140
201.922477 91.525 176.1766
203.385690 91.499 176.0378
204.859507 91.474 175.8984
206.344003 91.449 175.7596
207.839257 91.424 175.6229
209.345346 91.400 175.4892
210.862348 91.377 175.3590
212.390344 91.353 175.2327
213.929412 91.330 175.1101
215.479633 91.307 174.9915
217.041087 91.286 174.8770
218.613856 91.265 174.7665
220.198022 91.245 174.6602
221.793668 91.227 174.5575
223.400876 91.209 174.4582
225.019731 91.193 174.3616
226.650317 91.178 174.2669
228.292718 91.164 174.1738
229.947022 91.151 174.0818
231.613312 91.139 173.9908
233.291678 91.128 173.9006
234.982206 91.118 173.8111
236.684984 91.109 173.7220
238.400101 91.100 173.6333
240.127646 91.093 173.5447
241.867710 91.087 173.4561
243.620383 91.082 173.3673
245.385757 91.077 173.2781
247.163923 91.073 173.1886
248.954975 91.069 173.0988
250.759005 91.066 173.0087
252.576108 91.063 172.9189
254.406379 91.060 172.8296
256.249912 91.056 172.7415
258.106805 91.052 172.6552
259.977153 91.048 172.5712
261.861055 91.043 172.4904
263.758608 91.037 172.4130
265.669911 91.031 172.3393
267.595065 91.025 172.2695
269.534169 91.017 172.2036
271.487325 91.010 172.1414
273.454634 91.002 172.0826
275.436199 90.995 172.0269
277.432123 90.987 171.9737
279.442511 90.980 171.9225
281.467467 90.973 171.8726
283.507096 90.966 171.8232
285.561505 90.960 171.7742
287.630801 90.953 171.7247
289.715093 90.947 171.6748
291.814488 90.941 171.6242
293.929096 90.936 171.5726
296.059027 90.932 171.5201
298.204393 90.929 171.4669
300.365305 90.926 171.4134
302.541876 90.925 171.3607
304.734219 90.924 171.3098
306.942449 90.925 171.2617
309.166680 90.926 171.2170
311.407029 90.928 171.1768
313.663613 90.930 171.1411
315.936549 90.932 171.1102
318.225955 90.934 171.0841
320.531952 90.935 171.0627
322.854659 90.936 171.0455
325.194197 90.937 171.0324
327.550688 90.936 171.0226
329.924255 90.935 171.0154
332.315022 90.932 171.0100
334.723114 90.929 171.0055
337.148655 90.924 171.0012
339.591774 90.919 170.9969
342.052596 90.912 170.9927
344.531250 90.904 170.9885
347.027865 90.896 170.9850
349.542572 90.887 170.9822
352.075502 90.877 170.9804
354.626786 90.866 170.9792
357.196558 90.855 170.9783
359.784951 90.843 170.9772
362.392101 90.830 170.9752
365.018144 90.817 170.9727
367.663216 90.803 170.9697
370.327455 90.789 170.9672
373.011000 90.774 170.9658
375.713992 90.759 170.9661
378.436570 90.743 170.9682
381.178878 90.728 170.9721
383.941057 90.712 170.9776
386.723252 90.696 170.9845
389.525608 90.680 170.9924
392.348271 90.665 171.0013
395.191389 90.649 171.0109
398.055108 90.632 171.0212
400.939580 90.616 171.0325
403.844953 90.598 171.0453
406.771380 90.581 171.0603
409.719013 90.562 171.0779
412.688006 90.543 171.0980
415.678514 90.522 171.1204
418.690692 90.500 171.1447
421.724697 90.477 171.1702
424.780688 90.453 171.1967
427.858824 90.427 171.2239
430.959265 90.399 171.2517
434.082174 90.370 171.2805
437.227712 90.339 171.3103
440.396044 90.307 171.3413
443.587336 90.273 171.3740
446.801752 90.239 171.4089
450.039462 90.203 171.4466
453.300634 90.166 171.4875
456.585437 90.129 171.5320
459.894043 90.092 171.5801
463.226625 90.055 171.6317
466.583356 90.018 171.6864
469.964411 89.982 171.7437
473.369967 89.947 171.8029
476.800201 89.912 171.8635
480.255292 89.879 171.9254
483.735420 89.847 171.9882
487.240766 89.816 172.0516
490.771513 89.786 172.1155
494.327846 89.757 172.1797
497.909949 89.730 172.2442
501.518010 89.705 172.3088
505.152216 89.681 172.3735
508.812758 89.658 172.4379
512.499825 89.638 172.5009
516.213610 89.619 172.5615
519.954306 89.603 172.6182
523.722109 89.589 172.6696
527.517216 89.577 172.7148
531.339823 89.566 172.7538
535.190130 89.558 172.7875
539.068339 89.551 172.8175
542.974650 89.545 172.8458
546.909268 89.541 172.8743
550.872398 89.539 172.9044
554.864247 89.537 172.9377
558.885022 89.538 172.9753
562.934933 89.540 173.0181
567.014192 89.543 173.0664
571.123010 89.547 173.1205
575.261603 89.553 173.1802
579.430186 89.559 173.2457
583.628976 89.566 173.3165
587.858192 89.574 173.3927
592.118055 89.581 173.4738
596.408786 89.589 173.5593
600.730610 89.598 173.6484
605.083752 89.606 173.7405
609.468438 89.614 173.8348
613.884897 89.623 173.9308
618.333360 89.631 174.0280
622.814059 89.638 174.1261
627.327226 89.645 174.2249
631.873098 89.652 174.3240
636.451911 89.657 174.4229
641.063904 89.662 174.5209
645.709317 89.666 174.6173
650.388393 89.669 174.7112
655.101375 89.671 174.8017
659.848510 89.673 174.8881
664.630044 89.673 174.9698
669.446228 89.673 175.0468
674.297311 89.671 175.1192
679.183547 89.668 175.1880
684.105191 89.664 175.2545
689.062499 89.657 175.3201
694.055730 89.650 175.3860
699.085144 89.640 175.4530
704.151003 89.630 175.5219
709.253572 89.618 175.5930
714.393116 89.604 175.6667
719.569903 89.590 175.7429
724.784203 89.574 175.8216
730.036288 89.558 175.9022
735.326432 89.541 175.9838
740.654910 89.523 176.0656
746.022001 89.505 176.1462
751.427984 89.486 176.2245
756.873141 89.466 176.2995
762.357756 89.445 176.3703
767.882114 89.425 176.4360
773.446504 89.403 176.4958
779.051217 89.382 176.5482
784.696543 89.360 176.5917
790.382778 89.338 176.6248
796.110217 89.316 176.6463
801.879160 89.293 176.6555
807.689907 89.268 176.6525
813.542761 89.243 176.6386
819.438027 89.215 176.6161
825.376013 89.184 176.5887
831.357028 89.151 176.5611
837.381383 89.115 176.5390
843.449394 89.075 176.5291
849.561376 89.032 176.5387
855.717648 88.987 176.5752
861.918531 88.939 176.6458
868.164348 88.892 176.7558
874.455424 88.845 176.9083
880.792089 88.801 177.1033
887.174671 88.761 177.3369
893.603505 88.727 177.6026
900.078924 88.700 177.8914
906.601267 88.681 178.1931
913.170874 88.669 178.4976
919.788086 88.665 178.7957
926.453250 88.668 179.0799
933.166712 88.678 179.3445
939.928823 88.694 179.5861
946.739934 88.714 179.8026
953.600402 88.739 179.9932
960.510584 88.768 -179.8416
967.470839 88.799 -179.7008
974.481532 88.834 -179.5834
981.543027 88.870 -179.4877
988.655692 88.909 -179.4126
995.819899 88.949 -179.3564
1003.036020 88.991 -179.3177
1010.304433 89.034 -179.2946
1017.625515 89.077 -179.2847
1024.999649 89.121 -179.2858
1032.427219 89.166 -179.2954
1039.908612 89.211 -179.3116
1047.444219 89.257 -179.3328
1055.034432 89.304 -179.3580
1062.679646 89.350 -179.3869
1070.380261 89.398 -179.4192
1078.136677 89.445 -179.4548
1085.949300 89.493 -179.4933
1093.818536 89.541 -179.5347
1101.744796 89.588 -179.5780
1109.728493 89.635 -179.6228
1117.770043 89.681 -179.6683
1125.869866 89.727 -179.7143
1134.028383 89.772 -179.7612
1142.246020 89.817 -179.8098
1150.523206 89.862 -179.8616
1158.860371 89.905 -179.9176
1167.257951 89.948 -179.9785
1175.716383 89.989 179.9554
1184.236109 90.030 179.8854
1192.817572 90.068 179.8127
1201.461220 90.105 179.7397
1210.167503 90.141 179.6686
1218.936876 90.176 179.6015
1227.769795 90.210 179.5397
1236.666721 90.243 179.4836
1245.628118 90.277 179.4330
1254.654453 90.310 179.3866
1263.746196 90.344 179.3428
1272.903822 90.379 179.2997
1282.127808 90.413 179.2564
1291.418634 90.448 179.2120
1300.776786 90.482 179.1663
1310.202751 90.516 179.1191
1319.697020 90.550 179.0701
1329.260089 90.584 179.0186
1338.892455 90.617 178.9641
1348.594622 90.650 178.9065
1358.367094 90.682 178.8461
1368.210382 90.713 178.7838
1378.124999 90.743 178.7206
1388.111461 90.772 178.6573
1398.170288 90.801 178.5946
1408.302007 90.830 178.5331
1418.507144 90.858 178.4738
1428.786231 90.885 178.4185
1439.139805 90.912 178.3691
1449.568405 90.939 178.3284
1460.072576 90.965 178.2986
1470.652863 90.991 178.2821
1481.309820 91.016 178.2812
1492.044002 91.042 178.2975
1502.855968 91.069 178.3314
1513.746282 91.095 178.3827
1524.715511 91.122 178.4504
1535.764228 91.149 178.5330
1546.893009 91.176 178.6288
1558.102433 91.201 178.7366
1569.393086 91.226 178.8555
1580.765555 91.249 178.9849
1592.220434 91.270 179.1244
1603.758320 91.289 179.2737
1615.379813 91.305 179.4336
1627.085521 91.319 179.6051
1638.876054 91.329 179.7899
1650.752025 91.338 179.9890
1662.714055 91.344 -179.7980
1674.762766 91.350 -179.5730
1686.898788 91.355 -179.3396
1699.122752 91.359 -179.1025
1711.435296 91.363 -178.8663
1723.837061 91.366 -178.6347
1736.328695 91.369 -178.4100
1748.910849 91.369 -178.1926
1761.584178 91.368 -177.9803
1774.349343 91.363 -177.7693
1787.207010 91.356 -177.5540
1800.157848 91.347 -177.3289
1813.202534 91.335 -177.0891
1826.341747 91.321 -176.8312
1839.576172 91.306 -176.5535
1852.906500 91.292 -176.2565
1866.333424 91.278 -175.9431
1879.857645 91.265 -175.6179
1893.479869 91.253 -175.2871
1907.200804 91.242 -174.9570
1921.021168 91.233 -174.6337
1934.941679 91.223 -174.3214
1948.963064 91.213 -174.0230
1963.086054 91.202 -173.7394
1977.311384 91.189 -173.4704
1991.639798 91.174 -173.2156
2006.072041 91.157 -172.9739
2020.608866 91.136 -172.7438
2035.251031 91.113 -172.5222
2049.999299 91.086 -172.3052
2064.854438 91.056 -172.0880
2079.817225 91.023 -171.8658
2094.888438 90.987 -171.6345
2110.068863 90.950 -171.3911
2125.359292 90.913 -171.1340
2140.760521 90.876 -170.8630
2156.273355 90.840 -170.5795
2171.898600 90.806 -170.2855
2187.637073 90.775 -169.9844
2203.489593 90.748 -169.6799
2219.456987 90.724 -169.3757
2235.540087 90.703 -169.0753
2251.739732 90.686 -168.7816
2268.056766 90.673 -168.4974
2284.492041 90.663 -168.2250
2301.046412 90.656 -167.9659
2317.720742 90.652 -167.7205
2334.515902 90.651 -167.4886
2351.432767 90.652 -167.2692
2368.472218 90.655 -167.0604
2385.635144 90.660 -166.8597
2402.922440 90.667 -166.6645
2420.335006 90.676 -166.4719
2437.873752 90.689 -166.2802
2455.539590 90.705 -166.0886
2473.333442 90.726 -165.8978
2491.256235 90.751 -165.7090
2509.308905 90.780 -165.5244
2527.492392 90.815 -165.3463
2545.807644 90.855 -165.1769
2564.255615 90.899 -165.0179
2582.837268 90.948 -164.8705
2601.553572 91.001 -164.7346
2620.405502 91.058 -164.6092
2639.394040 91.118 -164.4921
2658.520177 91.182 -164.3807
2677.784910 91.250 -164.2725
2697.189244 91.321 -164.1660
2716.734189 91.396 -164.0613
2736.420765 91.476 -163.9604
2756.249998 91.561 -163.8662
2776.222921 91.649 -163.7822
2796.340577 91.742 -163.7119
2816.604013 91.838 -163.6584
2837.014287 91.937 -163.6239
2857.572462 92.037 -163.6102
2878.279610 92.139 -163.6183
2899.136811 92.242 -163.6492
2920.145151 92.344 -163.7032
2941.305727 92.445 -163.7806
2962.619641 92.543 -163.8805
2984.088004 92.639 -164.0016
3005.711935 92.730 -164.1417
3027.492563 92.817 -164.2981
3049.431022 92.898 -164.4678
3071.528457 92.974 -164.6481
3093.786018 93.043 -164.8367
3116.204867 93.105 -165.0322
3138.786172 93.160 -165.2329
3161.531110 93.208 -165.4375
3184.440868 93.248 -165.6443
3207.516639 93.281 -165.8517
3230.759627 93.305 -166.0586
3254.171043 93.322 -166.2637
3277.752108 93.330 -166.4662
3301.504051 93.331 -166.6653
3325.428110 93.324 -166.8600
3349.525533 93.309 -167.0488
3373.797576 93.286 -167.2299
3398.245504 93.257 -167.4011
3422.870591 93.221 -167.5606
3447.674123 93.178 -167.7067
3472.657391 93.131 -167.8383
3497.821698 93.079 -167.9548
3523.168356 93.024 -168.0563
3548.698686 92.966 -168.1429
3574.414019 92.906 -168.2145
3600.315697 92.844 -168.2712
3626.405068 92.782 -168.3127
3652.683494 92.721 -168.3384
3679.152345 92.661 -168.3479
3705.812999 92.603 -168.3405
3732.666848 92.547 -168.3153
3759.715291 92.494 -168.2713
3786.959737 92.446 -168.2070
3814.401609 92.403 -168.1209
3842.042335 92.364 -168.0116
3869.883358 92.333 -167.8776
3897.926128 92.308 -167.7181
3926.172107 92.290 -167.5326
3954.622769 92.281 -167.3207
3983.279596 92.281 -167.0826
4012.144082 92.289 -166.8192
4041.217732 92.308 -166.5312
4070.502061 92.336 -166.2207
4099.998597 92.374 -165.8899
4129.708877 92.423 -165.5425
4159.634450 92.483 -165.1835
4189.776876 92.553 -164.8189
4220.137726 92.634 -164.4565
4250.718584 92.725 -164.1051
4281.521043 92.826 -163.7751
4312.546709 92.937 -163.4779
4343.797200 93.055 -163.2251
4375.274146 93.181 -163.0286
4406.979186 93.313 -162.8990
4438.913974 93.449 -162.8462
4471.080174 93.588 -162.8777
4503.479464 93.727 -162.9996
4536.113533 93.866 -163.2162
4568.984081 94.003 -163.5300
4602.092823 94.136 -163.9416
4635.441485 94.264 -164.4506
4669.031805 94.386 -165.0550
4702.865534 94.501 -165.7524
4736.944436 94.608 -166.5399
4771.270288 94.707 -167.4139
4805.844880 94.797 -168.3709
4840.670013 94.878 -169.4073
4875.747503 94.949 -170.5192
4911.079179 95.008 -171.7026
4946.666884 95.057 -172.9531
4982.512471 95.093 -174.2657
5018.617810 95.116 -175.6345
5054.984784 95.126 -177.0526
5091.615287 95.121 -178.5116
5128.511230 95.099 179.9980
5165.674537 95.061 178.4879
5203.107144 95.006 176.9712
5240.811003 94.932 175.4626
5278.788080 94.839 173.9785
5317.040355 94.728 172.5354
5355.569821 94.599 171.1505
5394.378487 94.453 169.8405
5433.468378 94.291 168.6214
5472.841529 94.114 167.5079
5512.499995 93.925 166.5132
5552.445842 93.726 165.6484
5592.681154 93.519 164.9225
5633.208027 93.307 164.3417
5674.028574 93.093 163.9099
5715.144924 92.879 163.6276
5756.559221 92.668 163.4919
5798.273622 92.464 163.4969
5840.290302 92.268 163.6332
5882.611454 92.082 163.8885
5925.239281 91.908 164.2477
5968.176007 91.747 164.6938
6011.423871 91.600 165.2083
6054.985126 91.466 165.7723
6098.862045 91.344 166.3682
6143.056913 91.233 166.9796
6187.572036 91.132 167.5934
6232.409733 91.037 168.1995
6277.572344 90.948 168.7915
6323.062220 90.863 169.3664
6368.881736 90.778 169.9247
6415.033278 90.692 170.4698
6461.519254 90.604 171.0077
6508.342086 90.513 171.5463
6555.504216 90.418 172.0955
6603.008102 90.318 172.6665
6650.856220 90.215 173.2715
6699.051066 90.109 173.9232
6747.595151 90.001 174.6337
6796.491007 89.895 175.4130
6845.741183 89.792 176.2673
6895.348246 89.698 177.1967
6945.314781 89.617 178.1926
6995.643395 89.553 179.2361
7046.336711 89.511 -179.7034
7097.397372 89.494 -178.6667
7148.828039 89.504 -177.7029
7200.631394 89.541 -176.8644
7252.810137 89.604 -176.2023
7305.366989 89.687 -175.7611
7358.304690 89.786 -175.5762
7411.625999 89.893 -175.6716
7465.333696 90.000 -176.0596
7519.430581 90.101 -176.7414
7573.919475 90.186 -177.7089
7628.803218 90.249 -178.9453
7684.084670 90.283 179.5732
7739.766716 90.281 177.8763
7795.852256 90.237 175.9998
7852.344215 90.147 173.9840
7909.245538 90.007 171.8756
7966.559191 89.812 169.7271
8024.288163 89.559 167.5986
8082.435463 89.248 165.5608
8141.004122 88.876 163.6976
8199.997194 88.445 162.1128
8259.417754 87.957 160.9388
8319.268900 87.418 160.3495
8379.553752 86.836 160.5804
8440.275452 86.228 161.9531
8501.437168 85.615 164.8981
8563.042086 85.028 169.9384
8625.093419 84.506 177.5343
8687.594401 84.092 -172.3545
8750.548291 83.825 -160.8193
8813.958371 83.727 -149.7903
8877.827947 83.796 -140.8159
8942.160348 84.009 -134.3362
9006.958928 84.327 -130.0396
9072.227065 84.714 -127.4106
9137.968162 85.135 -125.9908
9204.185647 85.566 -125.4360
9270.882970 85.991 -125.5037
9338.063610 86.398 -126.0256
9405.731068 86.782 -126.8864
9473.888873 87.141 -128.0070
9542.540577 87.473 -129.3336
9611.689759 87.778 -130.8297
9681.340025 88.056 -132.4710
9751.495006 88.308 -134.2410
9822.158359 88.534 -136.1285
9893.333767 88.732 -138.1244
9965.024942 88.904 -140.2209
10037.235620 89.048 -142.4096
10109.969567 89.163 -144.6808
10183.230574 89.249 -147.0237
10257.022461 89.305 -149.4257
10331.349074 89.331 -151.8735
10406.214288 89.326 -154.3530
10481.622007 89.291 -156.8500
10557.576160 89.227 -159.3502
10634.080709 89.133 -161.8404
10711.139642 89.012 -164.3080
10788.756975 88.865 -166.7419
10866.936755 88.692 -169.1331
10945.683059 88.497 -171.4744
11024.999990 88.281 -173.7608
11104.891685 88.045 -175.9899
11185.362308 87.792 -178.1613
11266.416054 87.524 179.7238
11348.057149 87.241 177.6632
11430.289849 86.946 175.6550
11513.118441 86.638 173.6984
11596.547243 86.317 171.7954
11680.580605 85.985 169.9508
11765.222907 85.642 168.1722
11850.478562 85.290 166.4677
11936.352015 84.931 164.8420
12022.847742 84.570 163.2932
12109.970253 84.214 161.8088
12197.724089 83.867 160.3653
12286.113826 83.538 158.9286
12375.144072 83.230 157.4567
12464.819467 82.950 155.9023
12555.144687 82.700 154.2163
12646.124441 82.480 152.3508
12737.763472 82.289 150.2630
12830.066557 82.122 147.9180
12923.038508 81.972 145.2916
13016.684172 81.833 142.3721
13111.008431 81.698 139.1583
13206.016203 81.560 135.6583
13301.712440 81.414 131.8852
13398.102132 81.260 127.8530
13495.190303 81.098 123.5724
13592.982015 80.929 119.0482
13691.482366 80.759 114.2768
13790.696491 80.591 109.2466
13890.629563 80.430 103.9393
13991.286791 80.277 98.3319
14092.673422 80.134 92.4003
14194.794743 79.998 86.1224
14297.656077 79.865 79.4816
14401.262787 79.729 72.4700
14505.620274 79.579 65.0900
14610.733978 79.408 57.3568
14716.609379 79.205 49.2989
14823.251997 78.963 40.9568
14930.667392 78.674 32.3824
15038.861162 78.334 23.6360
15147.838950 77.941 14.7840
15257.606435 77.492 5.8965
15368.169341 76.991 -2.9528
15479.533431 76.440 -11.6853
15591.704511 75.841 -20.2126
15704.688430 75.201 -28.4279
15818.491076 74.524 -36.1920
15933.118383 73.815 -43.3167
16048.576327 73.080 -49.5441
16164.870926 72.328 -54.5300
16282.008245 71.568 -57.8537
16399.994388 70.819 -59.1041
16518.835508 70.102 -58.1263
16638.537799 69.448 -55.4108
16759.107503 68.889 -52.2333
16880.550905 68.458 -50.0756
17002.874335 68.179 -49.8199
17126.084171 68.062 -51.5930
17250.186837 68.101 -55.1147
17375.188802 68.275 -60.0195
17501.096582 68.556 -65.9976
17627.916743 68.917 -72.8279
17755.655894 69.330 -80.3702
17884.320696 69.770 -88.5491
18013.917856 70.216 -97.3389
18144.454131 70.648 -106.7496
18275.936325 71.048 -116.8143
18408.371293 71.399 -127.5747
18541.765940 71.688 -139.0630
18676.127219 71.903 -151.2764
18811.462136 72.037 -164.1354
18947.777745 72.086 -177.4316
19085.081153 72.054 169.2197
19223.379519 71.950 156.3809
19362.680051 71.792 144.7065
19502.990012 71.605 134.8020
19644.316718 71.422 127.1108
19786.667534 71.275 121.8889
19930.049884 71.194 119.2563
