* Measurement data measured by REW V5.31.3
* Source: EXCL: Headset (USB-C to 3.5mm Headphone Jack Adapter), MICROPHONE (Master Volume), 0, volume: 0.750
* Format: 256k Log Swept Sine, 1 sweep at -12.0 dBFS with no timing reference
* Dated: Apr 1, 2025 10:26:55 PM
* REW Settings:
*  C-weighting compensation: Off
*  Target level: 75.0 dB
* Note: ; 
* Measurement: HD6XX (Soulwit) L7
* Smoothing: 1/6 octave
* Frequency Step: 96 ppo
* Start Frequency: 20.0 Hz
*
* Freq(Hz) SPL(dB) Phase(degrees)
20.033247 82.467 -94.8283
20.178416 82.529 -95.0676
20.324637 82.596 -95.2913
20.471918 82.669 -95.5056
20.620266 82.750 -95.7170
20.769689 82.836 -95.9318
20.920195 82.928 -96.1552
21.071791 83.025 -96.3914
21.224486 83.126 -96.6430
21.378287 83.230 -96.9110
21.533203 83.336 -97.1951
21.689242 83.442 -97.4937
21.846411 83.548 -97.8043
22.004719 83.652 -98.1243
22.164174 83.755 -98.4506
22.324785 83.855 -98.7804
22.486559 83.951 -99.1115
22.649506 84.043 -99.4418
22.813634 84.131 -99.7700
22.978951 84.214 -100.0947
23.145466 84.291 -100.4147
23.313188 84.362 -100.7286
23.482124 84.428 -101.0352
23.652286 84.488 -101.3328
23.823680 84.542 -101.6198
23.996316 84.592 -101.8950
24.170203 84.637 -102.1583
24.345351 84.680 -102.4105
24.521767 84.721 -102.6539
24.699462 84.761 -102.8928
24.878444 84.801 -103.1328
25.058724 84.843 -103.3806
25.240310 84.886 -103.6435
25.423211 84.930 -103.9282
25.607438 84.975 -104.2402
25.793000 85.021 -104.5826
25.979907 85.064 -104.9558
26.168168 85.106 -105.3571
26.357794 85.145 -105.7811
26.548793 85.179 -106.2201
26.741176 85.210 -106.6652
26.934954 85.236 -107.1071
27.130136 85.260 -107.5377
27.326732 85.281 -107.9507
27.524753 85.301 -108.3421
27.724208 85.322 -108.7111
27.925110 85.344 -109.0594
28.127466 85.368 -109.3907
28.331290 85.395 -109.7101
28.536590 85.425 -110.0228
28.743378 85.458 -110.3329
28.951664 85.493 -110.6436
29.161460 85.529 -110.9562
29.372776 85.567 -111.2709
29.585623 85.607 -111.5865
29.800013 85.647 -111.9022
30.015956 85.690 -112.2170
30.233464 85.735 -112.5310
30.452548 85.782 -112.8451
30.673220 85.832 -113.1605
30.895490 85.884 -113.4787
31.119372 85.940 -113.8005
31.344876 85.999 -114.1259
31.572014 86.060 -114.4534
31.800797 86.124 -114.7811
32.031239 86.191 -115.1062
32.263351 86.261 -115.4263
32.497144 86.334 -115.7399
32.732632 86.411 -116.0466
32.969826 86.493 -116.3477
33.208739 86.578 -116.6451
33.449383 86.667 -116.9415
33.691771 86.758 -117.2393
33.935916 86.853 -117.5399
34.181829 86.948 -117.8439
34.429525 87.045 -118.1505
34.679015 87.142 -118.4584
34.930314 87.239 -118.7661
35.183433 87.336 -119.0724
35.438387 87.433 -119.3768
35.695188 87.529 -119.6794
35.953850 87.624 -119.9808
36.214387 87.718 -120.2817
36.476811 87.812 -120.5827
36.741137 87.904 -120.8842
37.007378 87.994 -121.1862
37.275549 88.083 -121.4888
37.545663 88.170 -121.7926
37.817734 88.255 -122.0984
38.091777 88.339 -122.4073
38.367806 88.421 -122.7209
38.645835 88.500 -123.0399
38.925879 88.577 -123.3649
39.207952 88.652 -123.6952
39.492069 88.724 -124.0295
39.778244 88.792 -124.3664
40.066494 88.858 -124.7039
40.356832 88.921 -125.0403
40.649275 88.982 -125.3745
40.943836 89.041 -125.7053
41.240532 89.097 -126.0317
41.539378 89.152 -126.3532
41.840389 89.205 -126.6688
42.143582 89.257 -126.9781
42.448972 89.308 -127.2812
42.756574 89.358 -127.5788
43.066406 89.408 -127.8721
43.378483 89.457 -128.1626
43.692822 89.505 -128.4515
44.009438 89.552 -128.7394
44.328348 89.599 -129.0260
44.649570 89.644 -129.3105
44.973119 89.687 -129.5914
45.299013 89.730 -129.8677
45.627268 89.772 -130.1389
45.957902 89.813 -130.4052
46.290932 89.854 -130.6682
46.626375 89.894 -130.9301
46.964249 89.935 -131.1935
47.304571 89.976 -131.4618
47.647360 90.016 -131.7379
47.992632 90.056 -132.0242
48.340407 90.095 -132.3223
48.690701 90.132 -132.6318
49.043534 90.167 -132.9515
49.398924 90.199 -133.2785
49.756889 90.229 -133.6099
50.117447 90.257 -133.9427
50.480619 90.282 -134.2750
50.846423 90.306 -134.6058
51.214877 90.329 -134.9347
51.586001 90.350 -135.2616
51.959814 90.370 -135.5857
52.336336 90.388 -135.9055
52.715587 90.405 -136.2192
53.097586 90.422 -136.5248
53.482353 90.438 -136.8204
53.869908 90.454 -137.1057
54.260272 90.470 -137.3806
54.653464 90.487 -137.6462
55.049506 90.505 -137.9037
55.448417 90.525 -138.1546
55.850219 90.546 -138.4006
56.254933 90.569 -138.6435
56.662579 90.594 -138.8853
57.073180 90.621 -139.1280
57.486755 90.650 -139.3738
57.903328 90.681 -139.6254
58.322919 90.714 -139.8857
58.745551 90.750 -140.1585
59.171246 90.787 -140.4469
59.600025 90.825 -140.7531
60.031911 90.863 -141.0765
60.466927 90.902 -141.4146
60.905096 90.940 -141.7622
61.346439 90.977 -142.1138
61.790981 91.015 -142.4645
62.238744 91.053 -142.8110
62.689751 91.092 -143.1519
63.144027 91.133 -143.4871
63.601595 91.176 -143.8174
64.062478 91.222 -144.1442
64.526701 91.269 -144.4686
64.994288 91.319 -144.7920
65.465264 91.370 -145.1154
65.939652 91.422 -145.4395
66.417478 91.474 -145.7649
66.898766 91.527 -146.0918
67.383542 91.580 -146.4203
67.871831 91.631 -146.7501
68.363659 91.682 -147.0802
68.859050 91.730 -147.4099
69.358031 91.777 -147.7385
69.860628 91.821 -148.0654
70.366867 91.863 -148.3903
70.876774 91.902 -148.7134
71.390376 91.940 -149.0350
71.907700 91.974 -149.3555
72.428773 92.007 -149.6755
72.953622 92.037 -149.9954
73.482274 92.064 -150.3153
74.014757 92.089 -150.6353
74.551098 92.111 -150.9550
75.091326 92.130 -151.2739
75.635469 92.147 -151.5914
76.183555 92.162 -151.9069
76.735612 92.174 -152.2200
77.291670 92.184 -152.5306
77.851757 92.193 -152.8389
78.415903 92.200 -153.1450
78.984137 92.206 -153.4492
79.556489 92.210 -153.7521
80.132988 92.214 -154.0540
80.713665 92.216 -154.3550
81.298549 92.219 -154.6556
81.887672 92.221 -154.9561
82.481064 92.223 -155.2563
83.078756 92.224 -155.5564
83.680778 92.226 -155.8563
84.287164 92.228 -156.1562
84.897943 92.231 -156.4560
85.513149 92.233 -156.7559
86.132812 92.235 -157.0558
86.756966 92.238 -157.3557
87.385643 92.240 -157.6558
88.018875 92.242 -157.9556
88.656696 92.243 -158.2549
89.299139 92.243 -158.5536
89.946238 92.243 -158.8513
90.598025 92.242 -159.1478
91.254536 92.239 -159.4429
91.915804 92.236 -159.7362
92.581864 92.233 -160.0275
93.252750 92.228 -160.3168
93.928498 92.223 -160.6036
94.609143 92.218 -160.8881
95.294719 92.213 -161.1701
95.985264 92.208 -161.4500
96.680813 92.204 -161.7280
97.381402 92.199 -162.0045
98.087068 92.196 -162.2796
98.797847 92.192 -162.5535
99.513777 92.190 -162.8263
100.234895 92.188 -163.0980
100.961238 92.186 -163.3685
101.692845 92.185 -163.6381
102.429753 92.185 -163.9068
103.172002 92.185 -164.1749
103.919628 92.185 -164.4425
104.672673 92.186 -164.7094
105.431174 92.188 -164.9755
106.195172 92.191 -165.2401
106.964706 92.194 -165.5027
107.739816 92.199 -165.7629
108.520543 92.204 -166.0209
109.306928 92.211 -166.2766
110.099011 92.219 -166.5305
110.896834 92.228 -166.7827
111.700438 92.239 -167.0336
112.509866 92.250 -167.2831
113.325158 92.262 -167.5314
114.146359 92.275 -167.7784
114.973511 92.289 -168.0242
115.806656 92.302 -168.2691
116.645839 92.316 -168.5135
117.491103 92.330 -168.7580
118.342492 92.343 -169.0028
119.200050 92.356 -169.2480
120.063823 92.368 -169.4937
120.933855 92.379 -169.7395
121.810191 92.389 -169.9850
122.692878 92.398 -170.2299
123.581962 92.406 -170.4736
124.477487 92.413 -170.7157
125.379503 92.418 -170.9557
126.288054 92.423 -171.1934
127.203189 92.427 -171.4284
128.124956 92.429 -171.6609
129.053402 92.430 -171.8909
129.988577 92.431 -172.1189
130.930527 92.430 -172.3456
131.879304 92.429 -172.5714
132.834956 92.427 -172.7970
133.797533 92.424 -173.0226
134.767085 92.420 -173.2485
135.743663 92.416 -173.4747
136.727317 92.411 -173.7008
137.718100 92.405 -173.9260
138.716062 92.398 -174.1493
139.721255 92.390 -174.3696
140.733733 92.380 -174.5864
141.753548 92.369 -174.7993
142.780753 92.357 -175.0085
143.815401 92.343 -175.2144
144.857546 92.328 -175.4177
145.907244 92.312 -175.6189
146.964548 92.296 -175.8184
148.029514 92.278 -176.0163
149.102197 92.259 -176.2126
150.182652 92.240 -176.4072
151.270938 92.220 -176.5997
152.367109 92.200 -176.7899
153.471224 92.179 -176.9778
154.583340 92.159 -177.1636
155.703515 92.138 -177.3475
156.831807 92.117 -177.5302
157.968274 92.096 -177.7119
159.112978 92.076 -177.8930
160.265976 92.055 -178.0737
161.427329 92.035 -178.2539
162.597098 92.015 -178.4336
163.775344 91.996 -178.6125
164.962128 91.977 -178.7908
166.157511 91.958 -178.9681
167.361557 91.940 -179.1448
168.574328 91.922 -179.3205
169.795887 91.905 -179.4952
171.026298 91.887 -179.6686
172.265625 91.870 -179.8405
173.513933 91.852 179.9895
174.771286 91.834 179.8213
176.037751 91.816 179.6548
177.313393 91.798 179.4900
178.598279 91.780 179.3266
179.892476 91.761 179.1643
181.196051 91.742 179.0030
182.509072 91.723 178.8425
183.831608 91.703 178.6830
185.163728 91.683 178.5248
186.505500 91.662 178.3680
187.856996 91.641 178.2133
189.218285 91.620 178.0609
190.589439 91.598 177.9113
191.970529 91.576 177.7646
193.361626 91.554 177.6213
194.762804 91.531 177.4819
196.174136 91.508 177.3468
197.595694 91.485 177.2166
199.027554 91.461 177.0914
200.469790 91.438 176.9713
201.922477 91.413 176.8556
203.385690 91.389 176.7430
204.859507 91.364 176.6318
206.344003 91.338 176.5204
207.839257 91.313 176.4075
209.345346 91.287 176.2925
210.862348 91.261 176.1758
212.390344 91.235 176.0582
213.929412 91.210 175.9403
215.479633 91.185 175.8231
217.041087 91.161 175.7074
218.613856 91.138 175.5939
220.198022 91.117 175.4833
221.793668 91.096 175.3760
223.400876 91.076 175.2722
225.019731 91.058 175.1720
226.650317 91.042 175.0750
228.292718 91.026 174.9810
229.947022 91.012 174.8892
231.613312 91.000 174.7996
233.291678 90.989 174.7116
234.982206 90.980 174.6254
236.684984 90.972 174.5408
238.400101 90.965 174.4579
240.127646 90.959 174.3764
241.867710 90.954 174.2963
243.620383 90.950 174.2174
245.385757 90.945 174.1396
247.163923 90.941 174.0630
248.954975 90.937 173.9871
250.759005 90.932 173.9116
252.576108 90.927 173.8362
254.406379 90.922 173.7605
256.249912 90.917 173.6842
258.106805 90.911 173.6072
259.977153 90.905 173.5297
261.861055 90.899 173.4519
263.758608 90.893 173.3743
265.669911 90.886 173.2974
267.595065 90.880 173.2217
269.534169 90.873 173.1476
271.487325 90.866 173.0753
273.454634 90.860 173.0048
275.436199 90.853 172.9361
277.432123 90.846 172.8692
279.442511 90.839 172.8043
281.467467 90.833 172.7416
283.507096 90.827 172.6810
285.561505 90.822 172.6225
287.630801 90.817 172.5662
289.715093 90.813 172.5120
291.814488 90.810 172.4604
293.929096 90.807 172.4114
296.059027 90.805 172.3654
298.204393 90.803 172.3221
300.365305 90.802 172.2816
302.541876 90.800 172.2436
304.734219 90.799 172.2076
306.942449 90.798 172.1737
309.166680 90.798 172.1415
311.407029 90.797 172.1113
313.663613 90.797 172.0832
315.936549 90.796 172.0574
318.225955 90.796 172.0339
320.531952 90.795 172.0130
322.854659 90.795 171.9944
325.194197 90.794 171.9780
327.550688 90.793 171.9634
329.924255 90.792 171.9506
332.315022 90.791 171.9391
334.723114 90.789 171.9290
337.148655 90.786 171.9202
339.591774 90.783 171.9130
342.052596 90.779 171.9072
344.531250 90.774 171.9029
347.027865 90.768 171.9000
349.542572 90.760 171.8986
352.075502 90.752 171.8986
354.626786 90.743 171.9001
357.196558 90.733 171.9036
359.784951 90.722 171.9088
362.392101 90.711 171.9159
365.018144 90.698 171.9248
367.663216 90.685 171.9353
370.327455 90.671 171.9470
373.011000 90.657 171.9597
375.713992 90.643 171.9730
378.436570 90.628 171.9867
381.178878 90.613 172.0004
383.941057 90.598 172.0138
386.723252 90.583 172.0267
389.525608 90.567 172.0389
392.348271 90.551 172.0507
395.191389 90.535 172.0624
398.055108 90.519 172.0745
400.939580 90.502 172.0876
403.844953 90.484 172.1024
406.771380 90.466 172.1191
409.719013 90.447 172.1382
412.688006 90.427 172.1595
415.678514 90.406 172.1829
418.690692 90.383 172.2083
421.724697 90.360 172.2352
424.780688 90.334 172.2635
427.858824 90.308 172.2932
430.959265 90.280 172.3241
434.082174 90.250 172.3564
437.227712 90.219 172.3899
440.396044 90.187 172.4245
443.587336 90.153 172.4601
446.801752 90.118 172.4968
450.039462 90.083 172.5344
453.300634 90.046 172.5732
456.585437 90.010 172.6135
459.894043 89.973 172.6557
463.226625 89.937 172.7002
466.583356 89.900 172.7473
469.964411 89.865 172.7972
473.369967 89.830 172.8497
476.800201 89.795 172.9044
480.255292 89.762 172.9608
483.735420 89.730 173.0183
487.240766 89.699 173.0764
490.771513 89.670 173.1348
494.327846 89.641 173.1935
497.909949 89.614 173.2526
501.518010 89.589 173.3124
505.152216 89.564 173.3734
508.812758 89.541 173.4355
512.499825 89.520 173.4990
516.213610 89.500 173.5634
519.954306 89.483 173.6281
523.722109 89.467 173.6922
527.517216 89.454 173.7550
531.339823 89.442 173.8157
535.190130 89.433 173.8738
539.068339 89.425 173.9295
542.974650 89.420 173.9831
546.909268 89.415 174.0354
550.872398 89.413 174.0873
554.864247 89.412 174.1400
558.885022 89.413 174.1942
562.934933 89.414 174.2510
567.014192 89.417 174.3110
571.123010 89.421 174.3752
575.261603 89.426 174.4444
579.430186 89.431 174.5192
583.628976 89.438 174.6004
587.858192 89.444 174.6884
592.118055 89.452 174.7834
596.408786 89.459 174.8850
600.730610 89.467 174.9927
605.083752 89.476 175.1052
609.468438 89.484 175.2211
613.884897 89.493 175.3389
618.333360 89.502 175.4570
622.814059 89.510 175.5740
627.327226 89.518 175.6891
631.873098 89.526 175.8016
636.451911 89.533 175.9109
641.063904 89.540 176.0164
645.709317 89.546 176.1177
650.388393 89.551 176.2142
655.101375 89.555 176.3054
659.848510 89.559 176.3908
664.630044 89.561 176.4701
669.446228 89.563 176.5435
674.297311 89.562 176.6114
679.183547 89.561 176.6748
684.105191 89.557 176.7350
689.062499 89.552 176.7933
694.055730 89.545 176.8514
699.085144 89.536 176.9105
704.151003 89.526 176.9717
709.253572 89.514 177.0359
714.393116 89.501 177.1034
719.569903 89.487 177.1742
724.784203 89.472 177.2478
730.036288 89.455 177.3237
735.326432 89.438 177.4011
740.654910 89.420 177.4791
746.022001 89.401 177.5568
751.427984 89.381 177.6337
756.873141 89.360 177.7094
762.357756 89.338 177.7836
767.882114 89.315 177.8560
773.446504 89.292 177.9263
779.051217 89.268 177.9935
784.696543 89.244 178.0562
790.382778 89.220 178.1125
796.110217 89.196 178.1608
801.879160 89.171 178.1992
807.689907 89.147 178.2268
813.542761 89.122 178.2429
819.438027 89.095 178.2483
825.376013 89.067 178.2448
831.357028 89.037 178.2352
837.381383 89.004 178.2241
843.449394 88.968 178.2169
849.561376 88.929 178.2208
855.717648 88.887 178.2437
861.918531 88.842 178.2938
868.164348 88.796 178.3793
874.455424 88.750 178.5060
880.792089 88.705 178.6773
887.174671 88.663 178.8926
893.603505 88.626 179.1474
900.078924 88.596 179.4335
906.601267 88.573 179.7405
913.170874 88.558 -179.9435
919.788086 88.551 -179.6296
926.453250 88.552 -179.3277
933.166712 88.560 -179.0450
939.928823 88.575 -178.7863
946.739934 88.594 -178.5543
953.600402 88.619 -178.3499
960.510584 88.647 -178.1722
967.470839 88.678 -178.0203
974.481532 88.712 -177.8922
981.543027 88.749 -177.7859
988.655692 88.787 -177.6997
995.819899 88.828 -177.6320
1003.036020 88.870 -177.5809
1010.304433 88.913 -177.5450
1017.625515 88.957 -177.5220
1024.999649 89.002 -177.5100
1032.427219 89.047 -177.5067
1039.908612 89.093 -177.5101
1047.444219 89.140 -177.5186
1055.034432 89.187 -177.5312
1062.679646 89.235 -177.5472
1070.380261 89.283 -177.5668
1078.136677 89.332 -177.5900
1085.949300 89.381 -177.6172
1093.818536 89.430 -177.6487
1101.744796 89.479 -177.6845
1109.728493 89.527 -177.7240
1117.770043 89.575 -177.7664
1125.869866 89.622 -177.8105
1134.028383 89.668 -177.8557
1142.246020 89.713 -177.9017
1150.523206 89.758 -177.9487
1158.860371 89.802 -177.9976
1167.257951 89.845 -178.0493
1175.716383 89.887 -178.1045
1184.236109 89.928 -178.1637
1192.817572 89.968 -178.2263
1201.461220 90.007 -178.2913
1210.167503 90.044 -178.3571
1218.936876 90.080 -178.4218
1227.769795 90.116 -178.4840
1236.666721 90.151 -178.5426
1245.628118 90.185 -178.5974
1254.654453 90.219 -178.6489
1263.746196 90.254 -178.6985
1272.903822 90.288 -178.7478
1282.127808 90.323 -178.7981
1291.418634 90.358 -178.8499
1300.776786 90.392 -178.9031
1310.202751 90.425 -178.9575
1319.697020 90.459 -179.0126
1329.260089 90.492 -179.0686
1338.892455 90.524 -179.1259
1348.594622 90.555 -179.1847
1358.367094 90.586 -179.2448
1368.210382 90.615 -179.3054
1378.124999 90.644 -179.3652
1388.111461 90.672 -179.4234
1398.170288 90.699 -179.4791
1408.302007 90.726 -179.5320
1418.507144 90.752 -179.5816
1428.786231 90.778 -179.6268
1439.139805 90.803 -179.6662
1449.568405 90.828 -179.6976
1460.072576 90.853 -179.7185
1470.652863 90.877 -179.7258
1481.309820 90.901 -179.7167
1492.044002 90.925 -179.6887
1502.855968 90.950 -179.6406
1513.746282 90.975 -179.5724
1524.715511 91.000 -179.4857
1535.764228 91.026 -179.3828
1546.893009 91.052 -179.2664
1558.102433 91.078 -179.1387
1569.393086 91.102 -179.0010
1580.765555 91.125 -178.8532
1592.220434 91.146 -178.6952
1603.758320 91.164 -178.5262
1615.379813 91.180 -178.3456
1627.085521 91.193 -178.1525
1638.876054 91.204 -177.9460
1650.752025 91.213 -177.7263
1662.714055 91.221 -177.4942
1674.762766 91.227 -177.2524
1686.898788 91.233 -177.0045
1699.122752 91.238 -176.7550
1711.435296 91.243 -176.5081
1723.837061 91.247 -176.2669
1736.328695 91.249 -176.0328
1748.910849 91.250 -175.8055
1761.584178 91.248 -175.5825
1774.349343 91.243 -175.3593
1787.207010 91.236 -175.1303
1800.157848 91.226 -174.8896
1813.202534 91.213 -174.6320
1826.341747 91.199 -174.3541
1839.576172 91.184 -174.0546
1852.906500 91.170 -173.7346
1866.333424 91.156 -173.3981
1879.857645 91.144 -173.0507
1893.479869 91.133 -172.6993
1907.200804 91.123 -172.3508
1921.021168 91.114 -172.0109
1934.941679 91.106 -171.6835
1948.963064 91.096 -171.3707
1963.086054 91.085 -171.0723
1977.311384 91.071 -170.7869
1991.639798 91.055 -170.5125
2006.072041 91.037 -170.2468
2020.608866 91.015 -169.9875
2035.251031 90.991 -169.7319
2049.999299 90.964 -169.4767
2064.854438 90.935 -169.2184
2079.817225 90.903 -168.9539
2094.888438 90.870 -168.6809
2110.068863 90.837 -168.3982
2125.359292 90.803 -168.1055
2140.760521 90.771 -167.8032
2156.273355 90.739 -167.4924
2171.898600 90.710 -167.1747
2187.637073 90.684 -166.8525
2203.489593 90.661 -166.5292
2219.456987 90.641 -166.2090
2235.540087 90.625 -165.8955
2251.739732 90.612 -165.5920
2268.056766 90.603 -165.3007
2284.492041 90.597 -165.0225
2301.046412 90.593 -164.7574
2317.720742 90.591 -164.5046
2334.515902 90.592 -164.2621
2351.432767 90.596 -164.0279
2368.472218 90.601 -163.8008
2385.635144 90.610 -163.5802
2402.922440 90.622 -163.3663
2420.335006 90.637 -163.1595
2437.873752 90.655 -162.9599
2455.539590 90.677 -162.7675
2473.333442 90.703 -162.5823
2491.256235 90.733 -162.4047
2509.308905 90.766 -162.2349
2527.492392 90.804 -162.0737
2545.807644 90.846 -161.9213
2564.255615 90.892 -161.7778
2582.837268 90.941 -161.6431
2601.553572 90.995 -161.5160
2620.405502 91.051 -161.3948
2639.394040 91.111 -161.2771
2658.520177 91.175 -161.1604
2677.784910 91.243 -161.0431
2697.189244 91.314 -160.9245
2716.734189 91.391 -160.8057
2736.420765 91.472 -160.6891
2756.249998 91.557 -160.5777
2776.222921 91.648 -160.4749
2796.340577 91.743 -160.3839
2816.604013 91.841 -160.3079
2837.014287 91.943 -160.2496
2857.572462 92.048 -160.2117
2878.279610 92.155 -160.1964
2899.136811 92.262 -160.2053
2920.145151 92.370 -160.2397
2941.305727 92.476 -160.3000
2962.619641 92.581 -160.3852
2984.088004 92.683 -160.4938
3005.711935 92.781 -160.6240
3027.492563 92.874 -160.7736
3049.431022 92.963 -160.9410
3071.528457 93.045 -161.1241
3093.786018 93.121 -161.3209
3116.204867 93.190 -161.5289
3138.786172 93.252 -161.7455
3161.531110 93.306 -161.9687
3184.440868 93.352 -162.1965
3207.516639 93.390 -162.4277
3230.759627 93.420 -162.6611
3254.171043 93.441 -162.8961
3277.752108 93.454 -163.1318
3301.504051 93.459 -163.3669
3325.428110 93.455 -163.5998
3349.525533 93.443 -163.8281
3373.797576 93.422 -164.0491
3398.245504 93.393 -164.2599
3422.870591 93.358 -164.4581
3447.674123 93.315 -164.6415
3472.657391 93.267 -164.8083
3497.821698 93.214 -164.9575
3523.168356 93.157 -165.0883
3548.698686 93.096 -165.2000
3574.414019 93.033 -165.2925
3600.315697 92.969 -165.3654
3626.405068 92.905 -165.4186
3652.683494 92.841 -165.4515
3679.152345 92.778 -165.4637
3705.812999 92.717 -165.4546
3732.666848 92.659 -165.4235
3759.715291 92.605 -165.3698
3786.959737 92.556 -165.2928
3814.401609 92.512 -165.1920
3842.042335 92.474 -165.0668
3869.883358 92.442 -164.9169
3897.926128 92.419 -164.7425
3926.172107 92.403 -164.5438
3954.622769 92.396 -164.3212
3983.279596 92.397 -164.0751
4012.144082 92.408 -163.8058
4041.217732 92.428 -163.5137
4070.502061 92.458 -163.2000
4099.998597 92.497 -162.8662
4129.708877 92.546 -162.5154
4159.634450 92.606 -162.1516
4189.776876 92.676 -161.7803
4220.137726 92.756 -161.4086
4250.718584 92.847 -161.0450
4281.521043 92.947 -160.6992
4312.546709 93.056 -160.3821
4343.797200 93.173 -160.1044
4375.274146 93.297 -159.8769
4406.979186 93.428 -159.7097
4438.913974 93.563 -159.6117
4471.080174 93.701 -159.5907
4503.479464 93.841 -159.6528
4536.113533 93.981 -159.8030
4568.984081 94.120 -160.0442
4602.092823 94.257 -160.3783
4635.441485 94.390 -160.8054
4669.031805 94.519 -161.3246
4702.865534 94.642 -161.9342
4736.944436 94.760 -162.6314
4771.270288 94.870 -163.4133
4805.844880 94.974 -164.2770
4840.670013 95.071 -165.2199
4875.747503 95.160 -166.2396
4911.079179 95.241 -167.3340
4946.666884 95.314 -168.5013
4982.512471 95.377 -169.7391
5018.617810 95.430 -171.0446
5054.984784 95.472 -172.4137
5091.615287 95.502 -173.8414
5128.511230 95.518 -175.3207
5165.674537 95.519 -176.8427
5203.107144 95.504 -178.3968
5240.811003 95.471 -179.9705
5278.788080 95.421 178.4505
5317.040355 95.351 176.8813
5355.569821 95.263 175.3383
5394.378487 95.156 173.8382
5433.468378 95.030 172.3978
5472.841529 94.887 171.0333
5512.499995 94.728 169.7600
5552.445842 94.554 168.5919
5592.681154 94.367 167.5410
5633.208027 94.170 166.6173
5674.028574 93.964 165.8289
5715.144924 93.752 165.1807
5756.559221 93.537 164.6753
5798.273622 93.321 164.3126
5840.290302 93.107 164.0894
5882.611454 92.896 163.9998
5925.239281 92.690 164.0356
5968.176007 92.491 164.1870
6011.423871 92.301 164.4422
6054.985126 92.118 164.7889
6098.862045 91.945 165.2145
6143.056913 91.779 165.7066
6187.572036 91.622 166.2542
6232.409733 91.472 166.8480
6277.572344 91.328 167.4816
6323.062220 91.189 168.1509
6368.881736 91.053 168.8546
6415.033278 90.921 169.5941
6461.519254 90.791 170.3728
6508.342086 90.662 171.1965
6555.504216 90.536 172.0724
6603.008102 90.413 173.0084
6650.856220 90.295 174.0121
6699.051066 90.183 175.0898
6747.595151 90.080 176.2448
6796.491007 89.990 177.4748
6845.741183 89.916 178.7710
6895.348246 89.864 -179.8843
6945.314781 89.837 -178.5189
6995.643395 89.839 -177.1704
7046.336711 89.872 -175.8851
7097.397372 89.936 -174.7151
7148.828039 90.031 -173.7140
7200.631394 90.153 -172.9318
7252.810137 90.296 -172.4105
7305.366989 90.455 -172.1815
7358.304690 90.622 -172.2642
7411.625999 90.789 -172.6661
7465.333696 90.947 -173.3848
7519.430581 91.091 -174.4091
7573.919475 91.213 -175.7211
7628.803218 91.305 -177.2977
7684.084670 91.364 -179.1113
7739.766716 91.383 178.8694
7795.852256 91.358 176.6791
7852.344215 91.284 174.3567
7909.245538 91.159 171.9449
7966.559191 90.977 169.4916
8024.288163 90.738 167.0508
8082.435463 90.439 164.6851
8141.004122 90.078 162.4677
8199.997194 89.656 160.4872
8259.417754 89.174 158.8538
8319.268900 88.635 157.7084
8379.553752 88.046 157.2372
8440.275452 87.417 157.6909
8501.437168 86.764 159.4077
8563.042086 86.110 162.8265
8625.093419 85.489 168.4424
8687.594401 84.939 176.5931
8750.548291 84.505 -173.0106
8813.958371 84.223 -161.6807
8877.827947 84.112 -151.2560
8942.160348 84.170 -142.9623
9006.958928 84.370 -137.0171
9072.227065 84.677 -133.0642
9137.968162 85.051 -130.6245
9204.185647 85.460 -129.2881
9270.882970 85.881 -128.7499
9338.063610 86.297 -128.7944
9405.731068 86.698 -129.2724
9473.888873 87.079 -130.0812
9542.540577 87.436 -131.1509
9611.689759 87.768 -132.4336
9681.340025 88.075 -133.8975
9751.495006 88.356 -135.5208
9822.158359 88.612 -137.2888
9893.333767 88.840 -139.1902
9965.024942 89.041 -141.2153
10037.235620 89.213 -143.3544
10109.969567 89.356 -145.5967
10183.230574 89.468 -147.9296
10257.022461 89.548 -150.3393
10331.349074 89.596 -152.8102
10406.214288 89.611 -155.3261
10481.622007 89.594 -157.8701
10557.576160 89.543 -160.4251
10634.080709 89.460 -162.9745
10711.139642 89.346 -165.5020
10788.756975 89.202 -167.9921
10866.936755 89.028 -170.4307
10945.683059 88.827 -172.8048
11024.999990 88.601 -175.1036
11104.891685 88.352 -177.3184
11185.362308 88.082 -179.4434
11266.416054 87.795 178.5244
11348.057149 87.493 176.5836
11430.289849 87.180 174.7296
11513.118441 86.858 172.9540
11596.547243 86.530 171.2458
11680.580605 86.199 169.5923
11765.222907 85.866 167.9809
11850.478562 85.532 166.3995
11936.352015 85.198 164.8378
12022.847742 84.865 163.2861
12109.970253 84.535 161.7350
12197.724089 84.209 160.1744
12286.113826 83.888 158.5915
12375.144072 83.575 156.9707
12464.819467 83.271 155.2921
12555.144687 82.980 153.5318
12646.124441 82.701 151.6624
12737.763472 82.435 149.6550
12830.066557 82.182 147.4830
12923.038508 81.938 145.1241
13016.684172 81.699 142.5636
13111.008431 81.462 139.7943
13206.016203 81.222 136.8162
13301.712440 80.977 133.6336
13398.102132 80.725 130.2522
13495.190303 80.467 126.6752
13592.982015 80.205 122.9003
13691.482366 79.943 118.9182
13790.696491 79.684 114.7111
13890.629563 79.433 110.2542
13991.286791 79.194 105.5169
14092.673422 78.968 100.4662
14194.794743 78.754 95.0695
14297.656077 78.548 89.2980
14401.262787 78.345 83.1304
14505.620274 78.136 76.5559
14610.733978 77.910 69.5766
14716.609379 77.657 62.2097
14823.251997 77.366 54.4874
14930.667392 77.029 46.4572
15038.861162 76.637 38.1802
15147.838950 76.186 29.7290
15257.606435 75.673 21.1851
15368.169341 75.097 12.6376
15479.533431 74.460 4.1813
15591.704511 73.765 -4.0859
15704.688430 73.017 -12.0672
15818.491076 72.227 -19.6725
15933.118383 71.405 -26.8298
16048.576327 70.567 -33.4988
16164.870926 69.737 -39.6880
16282.008245 68.943 -45.4653
16399.994388 68.217 -50.9572
16518.835508 67.595 -56.3267
16638.537799 67.104 -61.7388
16759.107503 66.759 -67.3263
16880.550905 66.560 -73.1703
17002.874335 66.493 -79.3002
17126.084171 66.538 -85.7034
17250.186837 66.677 -92.3428
17375.188802 66.898 -99.1715
17501.096582 67.194 -106.1480
17627.916743 67.564 -113.2487
17755.655894 68.002 -120.4797
17884.320696 68.499 -127.8865
18013.917856 69.041 -135.5580
18144.454131 69.605 -143.6223
18275.936325 70.165 -152.2317
18408.371293 70.695 -161.5388
18541.765940 71.170 -171.6663
18676.127219 71.568 177.3240
18811.462136 71.876 165.4673
18947.777745 72.083 152.9364
19085.081153 72.189 140.0789
19223.379519 72.199 127.4307
19362.680051 72.131 115.6644
19502.990012 72.011 105.4696
19644.316718 71.873 97.4163
19786.667534 71.753 91.8842
19930.049884 71.684 89.0769
