* Measurement data measured by REW V5.31.3
* Source: EXCL: Headset (USB-C to 3.5mm Headphone Jack Adapter), MICROPHONE (Master Volume), 0, volume: 0.750
* Format: 256k Log Swept Sine, 1 sweep at -12.0 dBFS with no timing reference
* Dated: Apr 1, 2025 10:20:03 PM
* REW Settings:
*  C-weighting compensation: Off
*  Target level: 75.0 dB
* Note: ; 
* Measurement: HD6XX (Soulwit) R5
* Smoothing: 1/6 octave
* Frequency Step: 96 ppo
* Start Frequency: 20.0 Hz
*
* Freq(Hz) SPL(dB) Phase(degrees)
20.033247 85.873 -92.8576
20.178416 85.972 -93.1966
20.324637 86.071 -93.5591
20.471918 86.169 -93.9422
20.620266 86.267 -94.3415
20.769689 86.363 -94.7517
20.920195 86.458 -95.1663
21.071791 86.552 -95.5789
21.224486 86.645 -95.9832
21.378287 86.737 -96.3738
21.533203 86.829 -96.7467
21.689242 86.922 -97.0996
21.846411 87.016 -97.4324
22.004719 87.112 -97.7472
22.164174 87.210 -98.0479
22.324785 87.309 -98.3401
22.486559 87.409 -98.6302
22.649506 87.509 -98.9246
22.813634 87.608 -99.2293
22.978951 87.704 -99.5487
23.145466 87.796 -99.8858
23.313188 87.882 -100.2413
23.482124 87.962 -100.6143
23.652286 88.035 -101.0023
23.823680 88.101 -101.4019
23.996316 88.159 -101.8091
24.170203 88.210 -102.2201
24.345351 88.254 -102.6320
24.521767 88.292 -103.0422
24.699462 88.325 -103.4493
24.878444 88.353 -103.8525
25.058724 88.378 -104.2509
25.240310 88.399 -104.6439
25.423211 88.418 -105.0300
25.607438 88.435 -105.4073
25.793000 88.449 -105.7732
25.979907 88.463 -106.1247
26.168168 88.476 -106.4591
26.357794 88.490 -106.7746
26.548793 88.506 -107.0708
26.741176 88.524 -107.3491
26.934954 88.546 -107.6127
27.130136 88.572 -107.8665
27.326732 88.602 -108.1163
27.524753 88.636 -108.3682
27.724208 88.675 -108.6274
27.925110 88.716 -108.8975
28.127466 88.758 -109.1803
28.331290 88.803 -109.4756
28.536590 88.847 -109.7812
28.743378 88.891 -110.0943
28.951664 88.936 -110.4112
29.161460 88.980 -110.7291
29.372776 89.024 -111.0456
29.585623 89.068 -111.3598
29.800013 89.114 -111.6716
30.015956 89.161 -111.9817
30.233464 89.210 -112.2911
30.452548 89.261 -112.6006
30.673220 89.315 -112.9106
30.895490 89.370 -113.2210
31.119372 89.429 -113.5314
31.344876 89.491 -113.8412
31.572014 89.556 -114.1501
31.800797 89.625 -114.4581
32.031239 89.699 -114.7660
32.263351 89.778 -115.0747
32.497144 89.861 -115.3855
32.732632 89.948 -115.6998
32.969826 90.040 -116.0188
33.208739 90.135 -116.3436
33.449383 90.234 -116.6751
33.691771 90.336 -117.0138
33.935916 90.441 -117.3605
34.181829 90.547 -117.7156
34.429525 90.654 -118.0791
34.679015 90.761 -118.4509
34.930314 90.868 -118.8302
35.183433 90.974 -119.2155
35.438387 91.078 -119.6048
35.695188 91.181 -119.9958
35.953850 91.281 -120.3861
36.214387 91.379 -120.7736
36.476811 91.474 -121.1571
36.741137 91.568 -121.5362
37.007378 91.659 -121.9113
37.275549 91.748 -122.2835
37.545663 91.835 -122.6543
37.817734 91.918 -123.0253
38.091777 91.999 -123.3974
38.367806 92.077 -123.7711
38.645835 92.151 -124.1460
38.925879 92.222 -124.5211
39.207952 92.289 -124.8946
39.492069 92.352 -125.2644
39.778244 92.411 -125.6285
40.066494 92.468 -125.9850
40.356832 92.522 -126.3326
40.649275 92.574 -126.6705
40.943836 92.624 -126.9989
41.240532 92.673 -127.3189
41.539378 92.722 -127.6320
41.840389 92.771 -127.9401
42.143582 92.819 -128.2450
42.448972 92.867 -128.5481
42.756574 92.915 -128.8499
43.066406 92.962 -129.1501
43.378483 93.009 -129.4477
43.692822 93.056 -129.7419
44.009438 93.102 -130.0320
44.328348 93.148 -130.3182
44.649570 93.194 -130.6016
44.973119 93.241 -130.8842
45.299013 93.287 -131.1686
45.627268 93.333 -131.4571
45.957902 93.379 -131.7514
46.290932 93.423 -132.0525
46.626375 93.465 -132.3600
46.964249 93.505 -132.6724
47.304571 93.542 -132.9875
47.647360 93.577 -133.3028
47.992632 93.610 -133.6161
48.340407 93.640 -133.9260
48.690701 93.669 -134.2322
49.043534 93.697 -134.5356
49.398924 93.724 -134.8379
49.756889 93.750 -135.1411
50.117447 93.776 -135.4472
50.480619 93.801 -135.7575
50.846423 93.824 -136.0725
51.214877 93.847 -136.3915
51.586001 93.867 -136.7132
51.959814 93.887 -137.0354
52.336336 93.904 -137.3553
52.715587 93.920 -137.6704
53.097586 93.935 -137.9787
53.482353 93.948 -138.2789
53.869908 93.961 -138.5707
54.260272 93.974 -138.8546
54.653464 93.986 -139.1316
55.049506 93.999 -139.4030
55.448417 94.012 -139.6700
55.850219 94.025 -139.9341
56.254933 94.039 -140.1966
56.662579 94.053 -140.4588
57.073180 94.069 -140.7218
57.486755 94.087 -140.9867
57.903328 94.106 -141.2547
58.322919 94.129 -141.5275
58.745551 94.154 -141.8073
59.171246 94.182 -142.0968
59.600025 94.215 -142.3992
60.031911 94.251 -142.7166
60.466927 94.290 -143.0502
60.905096 94.332 -143.3996
61.346439 94.376 -143.7628
61.790981 94.422 -144.1366
62.238744 94.471 -144.5176
62.689751 94.520 -144.9020
63.144027 94.571 -145.2865
63.601595 94.623 -145.6683
64.062478 94.675 -146.0455
64.526701 94.728 -146.4166
64.994288 94.782 -146.7812
65.465264 94.835 -147.1389
65.939652 94.888 -147.4897
66.417478 94.941 -147.8341
66.898766 94.992 -148.1727
67.383542 95.043 -148.5067
67.871831 95.093 -148.8374
68.363659 95.141 -149.1661
68.859050 95.188 -149.4941
69.358031 95.233 -149.8225
69.860628 95.276 -150.1520
70.366867 95.317 -150.4829
70.876774 95.356 -150.8151
71.390376 95.394 -151.1482
71.907700 95.429 -151.4817
72.428773 95.461 -151.8148
72.953622 95.492 -152.1469
73.482274 95.520 -152.4774
74.014757 95.545 -152.8062
74.551098 95.569 -153.1331
75.091326 95.589 -153.4579
75.635469 95.608 -153.7809
76.183555 95.623 -154.1018
76.735612 95.636 -154.4209
77.291670 95.647 -154.7383
77.851757 95.656 -155.0542
78.415903 95.662 -155.3685
78.984137 95.667 -155.6816
79.556489 95.670 -155.9936
80.132988 95.673 -156.3045
80.713665 95.674 -156.6146
81.298549 95.675 -156.9238
81.887672 95.675 -157.2321
82.481064 95.676 -157.5395
83.078756 95.676 -157.8460
83.680778 95.676 -158.1515
84.287164 95.676 -158.4559
84.897943 95.676 -158.7590
85.513149 95.676 -159.0608
86.132812 95.675 -159.3614
86.756966 95.674 -159.6610
87.385643 95.673 -159.9600
88.018875 95.671 -160.2589
88.656696 95.669 -160.5579
89.299139 95.666 -160.8575
89.946238 95.662 -161.1575
90.598025 95.657 -161.4580
91.254536 95.653 -161.7585
91.915804 95.647 -162.0585
92.581864 95.642 -162.3576
93.252750 95.636 -162.6553
93.928498 95.630 -162.9511
94.609143 95.624 -163.2450
95.294719 95.619 -163.5369
95.985264 95.614 -163.8269
96.680813 95.609 -164.1153
97.381402 95.604 -164.4022
98.087068 95.600 -164.6878
98.797847 95.597 -164.9720
99.513777 95.594 -165.2552
100.234895 95.592 -165.5372
100.961238 95.591 -165.8185
101.692845 95.591 -166.0990
102.429753 95.591 -166.3789
103.172002 95.593 -166.6584
103.919628 95.596 -166.9373
104.672673 95.600 -167.2154
105.431174 95.604 -167.4925
106.195172 95.610 -167.7683
106.964706 95.615 -168.0424
107.739816 95.622 -168.3146
108.520543 95.629 -168.5847
109.306928 95.637 -168.8528
110.099011 95.645 -169.1192
110.896834 95.654 -169.3843
111.700438 95.663 -169.6484
112.509866 95.673 -169.9118
113.325158 95.683 -170.1748
114.146359 95.693 -170.4376
114.973511 95.703 -170.7005
115.806656 95.714 -170.9640
116.645839 95.724 -171.2283
117.491103 95.734 -171.4937
118.342492 95.744 -171.7602
119.200050 95.753 -172.0275
120.063823 95.761 -172.2950
120.933855 95.769 -172.5623
121.810191 95.775 -172.8287
122.692878 95.781 -173.0938
123.581962 95.786 -173.3572
124.477487 95.790 -173.6188
125.379503 95.794 -173.8782
126.288054 95.796 -174.1354
127.203189 95.798 -174.3903
128.124956 95.798 -174.6431
129.053402 95.798 -174.8940
129.988577 95.796 -175.1431
130.930527 95.793 -175.3906
131.879304 95.789 -175.6365
132.834956 95.784 -175.8807
133.797533 95.778 -176.1234
134.767085 95.770 -176.3643
135.743663 95.762 -176.6037
136.727317 95.752 -176.8415
137.718100 95.741 -177.0779
138.716062 95.729 -177.3129
139.721255 95.715 -177.5468
140.733733 95.701 -177.7795
141.753548 95.685 -178.0112
142.780753 95.668 -178.2416
143.815401 95.651 -178.4704
144.857546 95.632 -178.6973
145.907244 95.612 -178.9217
146.964548 95.591 -179.1434
148.029514 95.570 -179.3622
149.102197 95.548 -179.5780
150.182652 95.526 -179.7911
151.270938 95.503 179.9984
152.367109 95.480 179.7902
153.471224 95.457 179.5840
154.583340 95.434 179.3796
155.703515 95.410 179.1770
156.831807 95.387 178.9760
157.968274 95.363 178.7766
159.112978 95.340 178.5790
160.265976 95.317 178.3832
161.427329 95.294 178.1896
162.597098 95.272 177.9985
163.775344 95.249 177.8102
164.962128 95.227 177.6252
166.157511 95.205 177.4437
167.361557 95.183 177.2659
168.574328 95.161 177.0916
169.795887 95.140 176.9205
171.026298 95.118 176.7518
172.265625 95.097 176.5851
173.513933 95.075 176.4198
174.771286 95.054 176.2557
176.037751 95.033 176.0925
177.313393 95.011 175.9302
178.598279 94.990 175.7691
179.892476 94.968 175.6091
181.196051 94.945 175.4504
182.509072 94.923 175.2930
183.831608 94.899 175.1366
185.163728 94.876 174.9810
186.505500 94.851 174.8257
187.856996 94.826 174.6704
189.218285 94.800 174.5149
190.589439 94.773 174.3592
191.970529 94.746 174.2036
193.361626 94.718 174.0483
194.762804 94.690 173.8938
196.174136 94.661 173.7401
197.595694 94.633 173.5875
199.027554 94.604 173.4364
200.469790 94.575 173.2870
201.922477 94.547 173.1400
203.385690 94.519 172.9962
204.859507 94.491 172.8566
206.344003 94.463 172.7220
207.839257 94.436 172.5928
209.345346 94.409 172.4689
210.862348 94.382 172.3497
212.390344 94.355 172.2345
213.929412 94.329 172.1226
215.479633 94.303 172.0137
217.041087 94.277 171.9075
218.613856 94.252 171.8042
220.198022 94.228 171.7039
221.793668 94.204 171.6069
223.400876 94.181 171.5131
225.019731 94.159 171.4228
226.650317 94.138 171.3358
228.292718 94.118 171.2517
229.947022 94.101 171.1702
231.613312 94.084 171.0906
233.291678 94.070 171.0125
234.982206 94.058 170.9351
236.684984 94.047 170.8582
238.400101 94.038 170.7811
240.127646 94.031 170.7036
241.867710 94.025 170.6251
243.620383 94.020 170.5454
245.385757 94.016 170.4642
247.163923 94.013 170.3817
248.954975 94.009 170.2977
250.759005 94.006 170.2125
252.576108 94.003 170.1260
254.406379 93.999 170.0386
256.249912 93.995 169.9507
258.106805 93.990 169.8629
259.977153 93.984 169.7757
261.861055 93.978 169.6896
263.758608 93.972 169.6052
265.669911 93.965 169.5226
267.595065 93.958 169.4417
269.534169 93.951 169.3623
271.487325 93.944 169.2838
273.454634 93.937 169.2057
275.436199 93.930 169.1277
277.432123 93.923 169.0497
279.442511 93.916 168.9722
281.467467 93.910 168.8957
283.507096 93.903 168.8209
285.561505 93.897 168.7479
287.630801 93.890 168.6768
289.715093 93.884 168.6077
291.814488 93.878 168.5403
293.929096 93.872 168.4745
296.059027 93.866 168.4103
298.204393 93.861 168.3477
300.365305 93.856 168.2873
302.541876 93.851 168.2294
304.734219 93.847 168.1745
306.942449 93.843 168.1227
309.166680 93.839 168.0740
311.407029 93.835 168.0283
313.663613 93.831 167.9856
315.936549 93.827 167.9457
318.225955 93.823 167.9088
320.531952 93.819 167.8746
322.854659 93.816 167.8431
325.194197 93.812 167.8140
327.550688 93.808 167.7872
329.924255 93.805 167.7626
332.315022 93.800 167.7400
334.723114 93.796 167.7194
337.148655 93.791 167.7009
339.591774 93.785 167.6844
342.052596 93.779 167.6699
344.531250 93.771 167.6572
347.027865 93.762 167.6462
349.542572 93.752 167.6366
352.075502 93.741 167.6280
354.626786 93.729 167.6199
357.196558 93.716 167.6122
359.784951 93.702 167.6046
362.392101 93.687 167.5972
365.018144 93.672 167.5900
367.663216 93.655 167.5836
370.327455 93.638 167.5780
373.011000 93.621 167.5736
375.713992 93.603 167.5704
378.436570 93.585 167.5685
381.178878 93.567 167.5679
383.941057 93.548 167.5685
386.723252 93.530 167.5703
389.525608 93.511 167.5733
392.348271 93.492 167.5773
395.191389 93.473 167.5825
398.055108 93.454 167.5889
400.939580 93.434 167.5965
403.844953 93.414 167.6055
406.771380 93.393 167.6160
409.719013 93.372 167.6281
412.688006 93.350 167.6416
415.678514 93.327 167.6565
418.690692 93.302 167.6724
421.724697 93.277 167.6889
424.780688 93.249 167.7056
427.858824 93.221 167.7222
430.959265 93.191 167.7382
434.082174 93.159 167.7533
437.227712 93.125 167.7673
440.396044 93.091 167.7805
443.587336 93.054 167.7933
446.801752 93.017 167.8067
450.039462 92.979 167.8214
453.300634 92.940 167.8383
456.585437 92.900 167.8583
459.894043 92.860 167.8820
463.226625 92.820 167.9101
466.583356 92.780 167.9429
469.964411 92.741 167.9803
473.369967 92.702 168.0224
476.800201 92.665 168.0685
480.255292 92.628 168.1182
483.735420 92.594 168.1709
487.240766 92.560 168.2259
490.771513 92.528 168.2823
494.327846 92.498 168.3391
497.909949 92.469 168.3951
501.518010 92.442 168.4496
505.152216 92.417 168.5018
508.812758 92.393 168.5510
512.499825 92.371 168.5969
516.213610 92.351 168.6392
519.954306 92.333 168.6778
523.722109 92.316 168.7130
527.517216 92.302 168.7453
531.339823 92.289 168.7756
535.190130 92.278 168.8048
539.068339 92.270 168.8336
542.974650 92.263 168.8627
546.909268 92.258 168.8925
550.872398 92.255 168.9229
554.864247 92.254 168.9536
558.885022 92.254 168.9841
562.934933 92.256 169.0138
567.014192 92.259 169.0421
571.123010 92.262 169.0688
575.261603 92.266 169.0939
579.430186 92.270 169.1175
583.628976 92.274 169.1407
587.858192 92.277 169.1646
592.118055 92.279 169.1909
596.408786 92.280 169.2216
600.730610 92.280 169.2586
605.083752 92.280 169.3035
609.468438 92.278 169.3578
613.884897 92.275 169.4221
618.333360 92.273 169.4965
622.814059 92.270 169.5805
627.327226 92.267 169.6727
631.873098 92.264 169.7710
636.451911 92.262 169.8726
641.063904 92.260 169.9745
645.709317 92.259 170.0735
650.388393 92.259 170.1667
655.101375 92.258 170.2520
659.848510 92.257 170.3276
664.630044 92.256 170.3926
669.446228 92.254 170.4466
674.297311 92.250 170.4896
679.183547 92.245 170.5218
684.105191 92.238 170.5442
689.062499 92.229 170.5579
694.055730 92.218 170.5645
699.085144 92.204 170.5661
704.151003 92.188 170.5651
709.253572 92.168 170.5643
714.393116 92.145 170.5667
719.569903 92.120 170.5753
724.784203 92.091 170.5932
730.036288 92.059 170.6233
735.326432 92.026 170.6683
740.654910 91.990 170.7301
746.022001 91.953 170.8098
751.427984 91.915 170.9073
756.873141 91.877 171.0213
762.357756 91.840 171.1487
767.882114 91.805 171.2854
773.446504 91.771 171.4261
779.051217 91.739 171.5651
784.696543 91.710 171.6973
790.382778 91.682 171.8181
796.110217 91.656 171.9241
801.879160 91.631 172.0131
807.689907 91.607 172.0837
813.542761 91.583 172.1356
819.438027 91.559 172.1688
825.376013 91.535 172.1848
831.357028 91.509 172.1856
837.381383 91.481 172.1746
843.449394 91.450 172.1560
849.561376 91.418 172.1349
855.717648 91.382 172.1169
861.918531 91.344 172.1082
868.164348 91.303 172.1150
874.455424 91.260 172.1435
880.792089 91.216 172.1995
887.174671 91.171 172.2877
893.603505 91.127 172.4110
900.078924 91.085 172.5704
906.601267 91.047 172.7643
913.170874 91.014 172.9883
919.788086 90.987 173.2354
926.453250 90.968 173.4970
933.166712 90.956 173.7635
939.928823 90.951 174.0259
946.739934 90.954 174.2761
953.600402 90.964 174.5077
960.510584 90.980 174.7162
967.470839 91.001 174.8987
974.481532 91.026 175.0539
981.543027 91.055 175.1818
988.655692 91.087 175.2831
995.819899 91.121 175.3593
1003.036020 91.157 175.4125
1010.304433 91.194 175.4450
1017.625515 91.233 175.4595
1024.999649 91.272 175.4587
1032.427219 91.311 175.4453
1039.908612 91.352 175.4214
1047.444219 91.392 175.3889
1055.034432 91.433 175.3488
1062.679646 91.474 175.3020
1070.380261 91.514 175.2493
1078.136677 91.555 175.1915
1085.949300 91.595 175.1290
1093.818536 91.635 175.0627
1101.744796 91.674 174.9927
1109.728493 91.713 174.9196
1117.770043 91.750 174.8434
1125.869866 91.786 174.7644
1134.028383 91.821 174.6829
1142.246020 91.855 174.5992
1150.523206 91.887 174.5136
1158.860371 91.917 174.4268
1167.257951 91.945 174.3394
1175.716383 91.972 174.2523
1184.236109 91.997 174.1666
1192.817572 92.020 174.0836
1201.461220 92.043 174.0045
1210.167503 92.063 173.9300
1218.936876 92.084 173.8606
1227.769795 92.103 173.7964
1236.666721 92.122 173.7372
1245.628118 92.141 173.6827
1254.654453 92.160 173.6323
1263.746196 92.178 173.5851
1272.903822 92.197 173.5405
1282.127808 92.215 173.4976
1291.418634 92.232 173.4561
1300.776786 92.249 173.4158
1310.202751 92.265 173.3772
1319.697020 92.280 173.3410
1329.260089 92.294 173.3081
1338.892455 92.306 173.2795
1348.594622 92.317 173.2565
1358.367094 92.328 173.2402
1368.210382 92.337 173.2318
1378.124999 92.346 173.2316
1388.111461 92.355 173.2397
1398.170288 92.363 173.2560
1408.302007 92.372 173.2808
1418.507144 92.382 173.3148
1428.786231 92.392 173.3591
1439.139805 92.402 173.4149
1449.568405 92.414 173.4839
1460.072576 92.426 173.5675
1470.652863 92.440 173.6671
1481.309820 92.455 173.7833
1492.044002 92.472 173.9159
1502.855968 92.490 174.0639
1513.746282 92.510 174.2252
1524.715511 92.530 174.3973
1535.764228 92.552 174.5778
1546.893009 92.573 174.7647
1558.102433 92.593 174.9574
1569.393086 92.611 175.1564
1580.765555 92.627 175.3638
1592.220434 92.641 175.5823
1603.758320 92.652 175.8149
1615.379813 92.660 176.0642
1627.085521 92.665 176.3317
1638.876054 92.669 176.6172
1650.752025 92.672 176.9187
1662.714055 92.674 177.2325
1674.762766 92.675 177.5538
1686.898788 92.676 177.8770
1699.122752 92.677 178.1974
1711.435296 92.677 178.5119
1723.837061 92.676 178.8195
1736.328695 92.673 179.1219
1748.910849 92.667 179.4227
1761.584178 92.660 179.7267
1774.349343 92.649 -179.9612
1787.207010 92.638 -179.6373
1800.157848 92.625 -179.2991
1813.202534 92.612 -178.9462
1826.341747 92.598 -178.5795
1839.576172 92.586 -178.2019
1852.906500 92.574 -177.8168
1866.333424 92.563 -177.4285
1879.857645 92.552 -177.0417
1893.479869 92.543 -176.6608
1907.200804 92.533 -176.2902
1921.021168 92.522 -175.9327
1934.941679 92.510 -175.5899
1948.963064 92.495 -175.2612
1963.086054 92.478 -174.9443
1977.311384 92.456 -174.6346
1991.639798 92.430 -174.3266
2006.072041 92.400 -174.0143
2020.608866 92.366 -173.6920
2035.251031 92.329 -173.3547
2049.999299 92.290 -172.9992
2064.854438 92.249 -172.6240
2079.817225 92.209 -172.2296
2094.888438 92.169 -171.8184
2110.068863 92.131 -171.3942
2125.359292 92.096 -170.9620
2140.760521 92.065 -170.5271
2156.273355 92.036 -170.0944
2171.898600 92.011 -169.6677
2187.637073 91.989 -169.2493
2203.489593 91.969 -168.8397
2219.456987 91.952 -168.4380
2235.540087 91.938 -168.0431
2251.739732 91.927 -167.6535
2268.056766 91.918 -167.2685
2284.492041 91.912 -166.8875
2301.046412 91.910 -166.5106
2317.720742 91.911 -166.1374
2334.515902 91.915 -165.7675
2351.432767 91.923 -165.4004
2368.472218 91.935 -165.0357
2385.635144 91.952 -164.6737
2402.922440 91.974 -164.3158
2420.335006 92.003 -163.9642
2437.873752 92.037 -163.6224
2455.539590 92.078 -163.2943
2473.333442 92.125 -162.9841
2491.256235 92.179 -162.6962
2509.308905 92.239 -162.4343
2527.492392 92.305 -162.2016
2545.807644 92.376 -162.0000
2564.255615 92.451 -161.8300
2582.837268 92.531 -161.6907
2601.553572 92.613 -161.5800
2620.405502 92.697 -161.4950
2639.394040 92.784 -161.4325
2658.520177 92.874 -161.3894
2677.784910 92.965 -161.3635
2697.189244 93.058 -161.3531
2716.734189 93.154 -161.3573
2736.420765 93.251 -161.3759
2756.249998 93.351 -161.4090
2776.222921 93.451 -161.4569
2796.340577 93.553 -161.5199
2816.604013 93.657 -161.5983
2837.014287 93.760 -161.6926
2857.572462 93.864 -161.8031
2878.279610 93.967 -161.9300
2899.136811 94.069 -162.0729
2920.145151 94.169 -162.2307
2941.305727 94.266 -162.4020
2962.619641 94.360 -162.5851
2984.088004 94.451 -162.7779
3005.711935 94.537 -162.9790
3027.492563 94.619 -163.1870
3049.431022 94.696 -163.4008
3071.528457 94.768 -163.6195
3093.786018 94.833 -163.8422
3116.204867 94.893 -164.0679
3138.786172 94.946 -164.2950
3161.531110 94.991 -164.5223
3184.440868 95.030 -164.7488
3207.516639 95.062 -164.9742
3230.759627 95.086 -165.1986
3254.171043 95.103 -165.4226
3277.752108 95.113 -165.6467
3301.504051 95.116 -165.8708
3325.428110 95.111 -166.0946
3349.525533 95.098 -166.3169
3373.797576 95.078 -166.5361
3398.245504 95.050 -166.7502
3422.870591 95.016 -166.9571
3447.674123 94.975 -167.1547
3472.657391 94.929 -167.3410
3497.821698 94.877 -167.5144
3523.168356 94.822 -167.6737
3548.698686 94.763 -167.8181
3574.414019 94.701 -167.9474
3600.315697 94.639 -168.0616
3626.405068 94.575 -168.1610
3652.683494 94.512 -168.2459
3679.152345 94.449 -168.3162
3705.812999 94.389 -168.3717
3732.666848 94.330 -168.4114
3759.715291 94.274 -168.4336
3786.959737 94.221 -168.4366
3814.401609 94.173 -168.4183
3842.042335 94.129 -168.3771
3869.883358 94.090 -168.3117
3897.926128 94.058 -168.2211
3926.172107 94.033 -168.1051
3954.622769 94.015 -167.9633
3983.279596 94.004 -167.7960
4012.144082 94.002 -167.6034
4041.217732 94.008 -167.3862
4070.502061 94.022 -167.1454
4099.998597 94.046 -166.8827
4129.708877 94.079 -166.6007
4159.634450 94.121 -166.3029
4189.776876 94.172 -165.9942
4220.137726 94.233 -165.6814
4250.718584 94.303 -165.3725
4281.521043 94.383 -165.0773
4312.546709 94.471 -164.8065
4343.797200 94.566 -164.5715
4375.274146 94.668 -164.3832
4406.979186 94.776 -164.2520
4438.913974 94.887 -164.1871
4471.080174 95.000 -164.1960
4503.479464 95.114 -164.2847
4536.113533 95.228 -164.4574
4568.984081 95.339 -164.7171
4602.092823 95.447 -165.0649
4635.441485 95.549 -165.5010
4669.031805 95.646 -166.0240
4702.865534 95.736 -166.6314
4736.944436 95.817 -167.3196
4771.270288 95.890 -168.0844
4805.844880 95.954 -168.9208
4840.670013 96.007 -169.8235
4875.747503 96.050 -170.7869
4911.079179 96.082 -171.8050
4946.666884 96.102 -172.8713
4982.512471 96.110 -173.9788
5018.617810 96.106 -175.1199
5054.984784 96.089 -176.2862
5091.615287 96.059 -177.4687
5128.511230 96.014 -178.6572
5165.674537 95.956 -179.8407
5203.107144 95.884 178.9930
5240.811003 95.797 177.8571
5278.788080 95.697 176.7652
5317.040355 95.583 175.7310
5355.569821 95.457 174.7684
5394.378487 95.320 173.8904
5433.468378 95.173 173.1098
5472.841529 95.017 172.4384
5512.499995 94.856 171.8868
5552.445842 94.691 171.4640
5592.681154 94.525 171.1769
5633.208027 94.361 171.0294
5674.028574 94.201 171.0216
5715.144924 94.049 171.1495
5756.559221 93.908 171.4047
5798.273622 93.780 171.7748
5840.290302 93.667 172.2440
5882.611454 93.571 172.7934
5925.239281 93.492 173.4023
5968.176007 93.431 174.0485
6011.423871 93.387 174.7094
6054.985126 93.359 175.3633
6098.862045 93.344 175.9907
6143.056913 93.342 176.5750
6187.572036 93.348 177.1032
6232.409733 93.360 177.5665
6277.572344 93.375 177.9598
6323.062220 93.391 178.2820
6368.881736 93.405 178.5355
6415.033278 93.414 178.7258
6461.519254 93.417 178.8618
6508.342086 93.412 178.9548
6555.504216 93.398 179.0187
6603.008102 93.375 179.0688
6650.856220 93.343 179.1212
6699.051066 93.302 179.1915
6747.595151 93.256 179.2935
6796.491007 93.206 179.4373
6845.741183 93.156 179.6278
6895.348246 93.109 179.8627
6945.314781 93.071 -179.8689
6995.643395 93.045 -179.5865
7046.336711 93.033 -179.3175
7097.397372 93.039 -179.0948
7148.828039 93.064 -178.9544
7200.631394 93.106 -178.9326
7252.810137 93.164 -179.0634
7305.366989 93.235 -179.3766
7358.304690 93.315 -179.8965
7411.625999 93.399 179.3590
7465.333696 93.481 178.3786
7519.430581 93.556 177.1574
7573.919475 93.618 175.6968
7628.803218 93.661 174.0042
7684.084670 93.678 172.0924
7739.766716 93.663 169.9804
7795.852256 93.612 167.6924
7852.344215 93.518 165.2584
7909.245538 93.378 162.7141
7966.559191 93.186 160.1008
8024.288163 92.939 157.4649
8082.435463 92.635 154.8585
8141.004122 92.271 152.3394
8199.997194 91.847 149.9711
8259.417754 91.363 147.8252
8319.268900 90.819 145.9832
8379.553752 90.218 144.5412
8440.275452 89.564 143.6168
8501.437168 88.862 143.3583
8563.042086 88.121 143.9584
8625.093419 87.355 145.6693
8687.594401 86.580 148.8122
8750.548291 85.822 153.7579
8813.958371 85.115 160.8217
8877.827947 84.498 170.0042
8942.160348 84.014 -179.3503
9006.958928 83.695 -168.5592
9072.227065 83.560 -158.9703
9137.968162 83.601 -151.2979
9204.185647 83.792 -145.5862
9270.882970 84.098 -141.5459
9338.063610 84.480 -138.8236
9405.731068 84.907 -137.1165
9473.888873 85.355 -136.1955
9542.540577 85.805 -135.8955
9611.689759 86.247 -136.1005
9681.340025 86.671 -136.7289
9751.495006 87.072 -137.7223
9822.158359 87.445 -139.0378
9893.333767 87.788 -140.6422
9965.024942 88.096 -142.5072
10037.235620 88.367 -144.6076
10109.969567 88.599 -146.9185
10183.230574 88.789 -149.4151
10257.022461 88.935 -152.0714
10331.349074 89.035 -154.8605
10406.214288 89.089 -157.7543
10481.622007 89.094 -160.7235
10557.576160 89.051 -163.7383
10634.080709 88.960 -166.7682
10711.139642 88.819 -169.7823
10788.756975 88.630 -172.7497
10866.936755 88.394 -175.6398
10945.683059 88.112 -178.4220
11024.999990 87.787 178.9332
11104.891685 87.420 176.4543
11185.362308 87.014 174.1679
11266.416054 86.574 172.0975
11348.057149 86.103 170.2623
11430.289849 85.606 168.6760
11513.118441 85.089 167.3454
11596.547243 84.559 166.2692
11680.580605 84.020 165.4382
11765.222907 83.481 164.8354
11850.478562 82.946 164.4383
11936.352015 82.423 164.2206
12022.847742 81.916 164.1558
12109.970253 81.432 164.2188
12197.724089 80.975 164.3882
12286.113826 80.552 164.6459
12375.144072 80.170 164.9747
12464.819467 79.838 165.3538
12555.144687 79.566 165.7538
12646.124441 79.367 166.1313
12737.763472 79.252 166.4243
12830.066557 79.232 166.5525
12923.038508 79.311 166.4199
13016.684172 79.487 165.9230
13111.008431 79.750 164.9603
13206.016203 80.085 163.4443
13301.712440 80.471 161.3094
13398.102132 80.887 158.5174
13495.190303 81.315 155.0577
13592.982015 81.738 150.9454
13691.482366 82.144 146.2159
13790.696491 82.525 140.9197
13890.629563 82.878 135.1159
13991.286791 83.205 128.8670
14092.673422 83.509 122.2324
14194.794743 83.797 115.2637
14297.656077 84.077 108.0015
14401.262787 84.354 100.4748
14505.620274 84.634 92.7010
14610.733978 84.918 84.6896
14716.609379 85.201 76.4449
14823.251997 85.480 67.9701
14930.667392 85.744 59.2710
15038.861162 85.985 50.3592
15147.838950 86.193 41.2541
15257.606435 86.359 31.9837
15368.169341 86.475 22.5839
15479.533431 86.538 13.0958
15591.704511 86.543 3.5620
15704.688430 86.492 -5.9772
15818.491076 86.384 -15.4858
15933.118383 86.221 -24.9333
16048.576327 86.004 -34.2930
16164.870926 85.734 -43.5397
16282.008245 85.412 -52.6473
16399.994388 85.037 -61.5885
16518.835508 84.612 -70.3335
16638.537799 84.139 -78.8527
16759.107503 83.622 -87.1185
16880.550905 83.070 -95.1068
17002.874335 82.494 -102.8006
17126.084171 81.913 -110.1915
17250.186837 81.352 -117.2864
17375.188802 80.843 -124.1129
17501.096582 80.428 -130.7275
17627.916743 80.145 -137.2231
17755.655894 80.023 -143.7309
17884.320696 80.071 -150.4171
18013.917856 80.270 -157.4715
18144.454131 80.582 -165.0884
18275.936325 80.959 -173.4493
18408.371293 81.354 177.2881
18541.765940 81.727 166.9914
18676.127219 82.048 155.5457
18811.462136 82.294 142.8585
18947.777745 82.455 128.8947
19085.081153 82.526 113.7793
19223.379519 82.512 97.9760
19362.680051 82.428 82.4244
19502.990012 82.299 68.4085
19644.316718 82.156 57.1285
19786.667534 82.034 49.3526
19930.049884 81.964 45.4171
