* Measurement data measured by REW V5.31.3
* Source: EXCL: Headset (USB-C to 3.5mm Headphone Jack Adapter), MICROPHONE (Master Volume), 0, volume: 0.750
* Format: 256k Log Swept Sine, 1 sweep at -12.0 dBFS with no timing reference
* Dated: Apr 7, 2025 5:10:11 PM
* REW Settings:
*  C-weighting compensation: Off
*  Target level: 75.0 dB
* Note: ; 
* Measurement: Maxwell (Wired) WC L2
* Smoothing: 1/6 octave
* Frequency Step: 96 ppo
* Start Frequency: 20.0 Hz
*
* Freq(Hz) SPL(dB) Phase(degrees)
20.187378 80.067 -25.2358
20.333664 80.174 -25.5861
20.481010 80.316 -26.0495
20.629424 80.486 -26.6088
20.778913 80.679 -27.2459
20.929486 80.888 -27.9429
21.081150 81.107 -28.6838
21.233912 81.332 -29.4553
21.387782 81.557 -30.2477
21.542767 81.778 -31.0544
21.698874 81.993 -31.8724
21.856113 82.198 -32.7022
22.014492 82.392 -33.5467
22.174018 82.573 -34.4112
22.334700 82.741 -35.3027
22.496546 82.895 -36.2289
22.659566 83.035 -37.1977
22.823766 83.162 -38.2166
22.989157 83.278 -39.2915
23.155745 83.382 -40.4266
23.323542 83.478 -41.6234
23.492554 83.567 -42.8808
23.662790 83.650 -44.1948
23.834261 83.731 -45.5585
24.006973 83.811 -46.9626
24.180938 83.891 -48.3959
24.356163 83.974 -49.8463
24.532658 84.059 -51.3015
24.710431 84.149 -52.7503
24.889493 84.241 -54.1830
25.069853 84.337 -55.5928
25.251519 84.435 -56.9754
25.434502 84.533 -58.3298
25.618811 84.631 -59.6578
25.804456 84.727 -60.9638
25.991445 84.820 -62.2541
26.179790 84.907 -63.5359
26.369500 84.989 -64.8169
26.560584 85.062 -66.1045
26.753053 85.128 -67.4045
26.946917 85.185 -68.7213
27.142185 85.234 -70.0570
27.338869 85.274 -71.4120
27.536977 85.306 -72.7845
27.736522 85.331 -74.1717
27.937512 85.351 -75.5698
28.139959 85.368 -76.9753
28.343872 85.383 -78.3854
28.549264 85.398 -79.7985
28.756143 85.414 -81.2144
28.964522 85.432 -82.6339
29.174411 85.453 -84.0584
29.385821 85.477 -85.4890
29.598763 85.503 -86.9256
29.813248 85.529 -88.3665
30.029287 85.556 -89.8074
30.246891 85.581 -91.2423
30.466073 85.605 -92.6633
30.686842 85.626 -94.0622
30.909212 85.647 -95.4310
31.133193 85.667 -96.7634
31.358797 85.687 -98.0554
31.586035 85.710 -99.3061
31.814921 85.736 -100.5170
32.045465 85.766 -101.6918
32.277680 85.801 -102.8350
32.511577 85.840 -103.9513
32.747169 85.883 -105.0440
32.984469 85.928 -106.1148
33.223488 85.976 -107.1637
33.464239 86.025 -108.1890
33.706735 86.074 -109.1890
33.950987 86.123 -110.1620
34.197010 86.171 -111.1081
34.444816 86.219 -112.0293
34.694417 86.266 -112.9297
34.945827 86.312 -113.8153
35.199059 86.357 -114.6934
35.454126 86.399 -115.5711
35.711041 86.439 -116.4549
35.969818 86.477 -117.3490
36.230470 86.511 -118.2556
36.493011 86.542 -119.1739
36.757455 86.570 -120.1005
37.023814 86.595 -121.0302
37.292104 86.618 -121.9566
37.562338 86.639 -122.8726
37.834530 86.659 -123.7719
38.108695 86.679 -124.6493
38.384846 86.699 -125.5010
38.662999 86.719 -126.3252
38.943167 86.740 -127.1218
39.225365 86.762 -127.8926
39.509608 86.786 -128.6411
39.795911 86.812 -129.3721
40.084289 86.840 -130.0916
40.374756 86.871 -130.8065
40.667328 86.904 -131.5242
40.962020 86.941 -132.2516
41.258848 86.980 -132.9950
41.557827 87.021 -133.7596
41.858972 87.064 -134.5486
42.162299 87.107 -135.3637
42.467824 87.150 -136.2050
42.775564 87.192 -137.0710
43.085533 87.232 -137.9595
43.397749 87.270 -138.8678
43.712227 87.306 -139.7937
44.028983 87.338 -140.7361
44.348036 87.368 -141.6951
44.669400 87.394 -142.6730
44.993093 87.417 -143.6738
45.319131 87.436 -144.7022
45.647532 87.452 -145.7629
45.978313 87.462 -146.8594
46.311491 87.468 -147.9925
46.647083 87.468 -149.1602
46.985107 87.462 -150.3576
47.325581 87.448 -151.5769
47.668521 87.428 -152.8090
48.013947 87.401 -154.0439
48.361876 87.366 -155.2721
48.712326 87.324 -156.4847
49.065315 87.275 -157.6748
49.420863 87.219 -158.8367
49.778987 87.156 -159.9666
50.139706 87.087 -161.0622
50.503039 87.010 -162.1222
50.869005 86.927 -163.1456
51.237623 86.837 -164.1320
51.608912 86.742 -165.0808
51.982891 86.641 -165.9919
52.359580 86.535 -166.8659
52.739000 86.425 -167.7045
53.121168 86.313 -168.5106
53.506106 86.200 -169.2880
53.893833 86.086 -170.0407
54.284370 85.973 -170.7715
54.677737 85.860 -171.4812
55.073955 85.749 -172.1687
55.473043 85.639 -172.8307
55.875024 85.532 -173.4632
56.279917 85.426 -174.0619
56.687745 85.322 -174.6228
57.098527 85.221 -175.1426
57.512287 85.122 -175.6191
57.929045 85.026 -176.0518
58.348822 84.931 -176.4437
58.771642 84.839 -176.8017
59.197525 84.748 -177.1360
59.626495 84.659 -177.4580
60.058573 84.572 -177.7772
60.493782 84.485 -178.0992
60.932145 84.400 -178.4246
61.373685 84.317 -178.7498
61.818424 84.237 -179.0690
62.266386 84.161 -179.3761
62.717593 84.089 -179.6660
63.172071 84.023 -179.9355
63.629842 83.961 179.8168
64.090930 83.903 179.5901
64.555359 83.850 179.3824
65.023154 83.801 179.1908
65.494339 83.757 179.0124
65.968938 83.717 178.8446
66.446976 83.681 178.6858
66.928478 83.648 178.5351
67.413469 83.620 178.3924
67.901975 83.594 178.2583
68.394021 83.572 178.1336
68.889632 83.552 178.0184
69.388835 83.534 177.9119
69.891655 83.517 177.8123
70.398118 83.501 177.7165
70.908252 83.485 177.6214
71.422083 83.469 177.5232
71.939636 83.452 177.4187
72.460941 83.434 177.3051
72.986023 83.416 177.1805
73.514909 83.397 177.0446
74.047629 83.377 176.8977
74.584208 83.357 176.7407
75.124676 83.336 176.5741
75.669061 83.315 176.3984
76.217390 83.292 176.2136
76.769692 83.269 176.0193
77.325997 83.244 175.8153
77.886333 83.218 175.6015
78.450730 83.191 175.3780
79.019216 83.163 175.1457
79.591822 83.134 174.9056
80.168577 83.104 174.6591
80.749512 83.073 174.4068
81.334656 83.041 174.1491
81.924040 83.009 173.8857
82.517696 82.976 173.6159
83.115653 82.942 173.3390
83.717943 82.907 173.0547
84.324598 82.872 172.7634
84.935649 82.835 172.4656
85.551128 82.798 172.1622
86.171066 82.760 171.8545
86.795497 82.721 171.5435
87.424453 82.680 171.2310
88.057967 82.638 170.9186
88.696071 82.595 170.6078
89.338800 82.551 170.3001
89.986185 82.506 169.9964
90.638262 82.460 169.6976
91.295065 82.414 169.4048
91.956626 82.366 169.1193
92.622982 82.318 168.8425
93.294166 82.269 168.5763
93.970214 82.220 168.3219
94.651161 82.169 168.0804
95.337042 82.118 167.8519
96.027894 82.066 167.6361
96.723752 82.014 167.4324
97.424652 81.960 167.2399
98.130631 81.906 167.0576
98.841726 81.852 166.8846
99.557974 81.797 166.7198
100.279412 81.742 166.5622
101.006078 81.688 166.4108
101.738010 81.634 166.2654
102.475245 81.582 166.1260
103.217823 81.531 165.9938
103.965782 81.483 165.8701
104.719161 81.436 165.7559
105.477999 81.392 165.6514
106.242336 81.349 165.5556
107.012212 81.309 165.4665
107.787666 81.271 165.3819
108.568740 81.235 165.3002
109.355474 81.201 165.2207
110.147909 81.169 165.1433
110.946086 81.140 165.0680
111.750047 81.113 164.9944
112.559834 81.088 164.9216
113.375489 81.065 164.8484
114.197055 81.044 164.7739
115.024574 81.024 164.6974
115.858089 81.007 164.6188
116.697645 80.990 164.5388
117.543284 80.975 164.4585
118.395051 80.961 164.3788
119.252990 80.948 164.3010
120.117147 80.935 164.2256
120.987565 80.923 164.1527
121.864291 80.912 164.0810
122.747370 80.901 164.0090
123.636848 80.891 163.9348
124.532771 80.880 163.8563
125.435187 80.869 163.7712
126.344142 80.857 163.6769
127.259684 80.844 163.5710
128.181860 80.830 163.4519
129.110718 80.814 163.3189
130.046308 80.796 163.1722
130.988677 80.776 163.0127
131.937875 80.753 162.8419
132.893951 80.728 162.6616
133.856956 80.699 162.4739
134.826938 80.667 162.2811
135.803950 80.632 162.0851
136.788041 80.594 161.8877
137.779264 80.554 161.6898
138.777669 80.510 161.4922
139.783309 80.464 161.2959
140.796237 80.416 161.1018
141.816504 80.365 160.9114
142.844165 80.312 160.7267
143.879273 80.256 160.5502
144.921881 80.198 160.3848
145.972045 80.136 160.2336
147.029819 80.072 160.0997
148.095257 80.005 159.9854
149.168417 79.935 159.8924
150.249353 79.862 159.8218
151.338121 79.786 159.7744
152.434780 79.708 159.7506
153.539385 79.627 159.7511
154.651995 79.545 159.7766
155.772667 79.462 159.8284
156.901460 79.378 159.9074
158.038432 79.293 160.0147
159.183644 79.209 160.1509
160.337154 79.126 160.3166
161.499023 79.044 160.5120
162.669312 78.965 160.7374
163.848081 78.888 160.9924
165.035392 78.815 161.2766
166.231306 78.746 161.5884
167.435887 78.681 161.9262
168.649196 78.621 162.2879
169.871298 78.565 162.6712
171.102255 78.514 163.0739
172.342133 78.468 163.4940
173.590995 78.427 163.9294
174.848907 78.391 164.3784
176.115934 78.360 164.8391
177.392143 78.334 165.3091
178.677599 78.312 165.7850
179.972371 78.295 166.2627
181.276525 78.281 166.7378
182.590129 78.272 167.2064
183.913252 78.266 167.6652
185.245964 78.264 168.1118
186.588332 78.267 168.5444
187.940428 78.272 168.9622
189.302322 78.282 169.3647
190.674085 78.294 169.7523
192.055788 78.309 170.1257
193.447503 78.327 170.4852
194.849303 78.345 170.8301
196.261262 78.365 171.1589
197.683452 78.386 171.4688
199.115948 78.406 171.7571
200.558824 78.427 172.0215
202.012156 78.447 172.2607
203.476019 78.467 172.4744
204.950490 78.488 172.6639
206.435646 78.508 172.8307
207.931564 78.530 172.9766
209.438322 78.551 173.1033
210.955998 78.574 173.2128
212.484672 78.597 173.3077
214.024424 78.621 173.3913
215.575333 78.644 173.4669
217.137481 78.668 173.5378
218.710948 78.692 173.6066
220.295818 78.716 173.6748
221.892172 78.740 173.7429
223.500094 78.763 173.8105
225.119668 78.786 173.8764
226.750978 78.809 173.9398
228.394109 78.831 174.0007
230.049147 78.853 174.0605
231.716178 78.876 174.1214
233.395289 78.898 174.1858
235.086567 78.920 174.2559
236.790102 78.943 174.3326
238.505980 78.966 174.4163
240.234293 78.990 174.5062
241.975130 79.015 174.6017
243.728581 79.040 174.7021
245.494739 79.067 174.8073
247.273695 79.095 174.9174
249.065542 79.125 175.0330
250.870374 79.155 175.1544
252.688284 79.187 175.2817
254.519367 79.221 175.4140
256.363720 79.256 175.5500
258.221437 79.294 175.6879
260.092616 79.334 175.8250
261.977354 79.377 175.9588
263.875750 79.424 176.0860
265.787903 79.474 176.2033
267.713911 79.528 176.3075
269.653877 79.586 176.3952
271.607900 79.647 176.4634
273.576083 79.712 176.5093
275.558528 79.780 176.5305
277.555338 79.850 176.5253
279.566619 79.922 176.4929
281.592474 79.995 176.4330
283.633009 80.069 176.3464
285.688331 80.143 176.2337
287.758546 80.215 176.0961
289.843763 80.287 175.9343
291.944090 80.357 175.7491
294.059638 80.424 175.5416
296.190515 80.488 175.3138
298.336833 80.549 175.0678
300.498705 80.606 174.8067
302.676243 80.659 174.5333
304.869559 80.708 174.2506
307.078770 80.753 173.9614
309.303989 80.794 173.6683
311.545334 80.830 173.3741
313.802919 80.863 173.0820
316.076865 80.891 172.7950
318.367288 80.916 172.5165
320.674309 80.937 172.2496
322.998047 80.955 171.9972
325.338624 80.969 171.7620
327.696162 80.982 171.5467
330.070783 80.992 171.3535
332.462612 81.000 171.1845
334.871773 81.007 171.0408
337.298392 81.013 170.9222
339.742595 81.019 170.8278
342.204510 81.025 170.7555
344.684265 81.031 170.7029
347.181989 81.037 170.6674
349.697813 81.044 170.6464
352.231868 81.052 170.6376
354.784285 81.061 170.6382
357.355198 81.071 170.6459
359.944741 81.082 170.6579
362.553049 81.095 170.6719
365.180258 81.109 170.6858
367.826505 81.124 170.6974
370.491927 81.141 170.7051
373.176665 81.160 170.7070
375.880856 81.180 170.7019
378.604644 81.202 170.6882
381.348169 81.225 170.6649
384.111575 81.250 170.6310
386.895006 81.275 170.5858
389.698607 81.302 170.5287
392.522524 81.330 170.4595
395.366904 81.358 170.3778
398.231895 81.387 170.2830
401.117648 81.415 170.1749
404.024312 81.444 170.0529
406.952038 81.473 169.9168
409.900981 81.501 169.7664
412.871292 81.529 169.6015
415.863128 81.556 169.4222
418.876643 81.581 169.2286
421.911996 81.606 169.0207
424.969344 81.628 168.7986
428.048847 81.649 168.5627
431.150666 81.667 168.3140
434.274961 81.683 168.0530
437.421897 81.696 167.7806
440.591636 81.706 167.4975
443.784345 81.713 167.2042
447.000189 81.717 166.9010
450.239337 81.719 166.5884
453.501956 81.717 166.2671
456.788219 81.712 165.9374
460.098294 81.706 165.6002
463.432356 81.696 165.2562
466.790578 81.685 164.9060
470.173135 81.673 164.5502
473.580203 81.658 164.1891
477.011961 81.642 163.8231
480.468586 81.625 163.4523
483.950259 81.607 163.0768
487.457163 81.588 162.6967
490.989478 81.567 162.3117
494.547390 81.545 161.9219
498.131084 81.521 161.5273
501.740748 81.496 161.1279
505.376568 81.470 160.7244
509.038735 81.441 160.3177
512.727439 81.411 159.9093
516.442874 81.378 159.5008
520.185232 81.344 159.0941
523.954708 81.307 158.6917
527.751500 81.268 158.2960
531.575805 81.227 157.9102
535.427822 81.184 157.5374
539.307753 81.139 157.1809
543.215800 81.093 156.8444
547.152165 81.045 156.5311
551.117055 80.997 156.2439
555.110677 80.948 155.9851
559.133237 80.900 155.7561
563.184947 80.854 155.5574
567.266018 80.809 155.3880
571.376661 80.766 155.2462
575.517092 80.726 155.1291
579.687526 80.689 155.0330
583.888181 80.656 154.9537
588.119275 80.625 154.8868
592.381030 80.597 154.8277
596.673667 80.572 154.7718
600.997410 80.550 154.7150
605.352485 80.529 154.6534
609.739119 80.509 154.5839
614.157540 80.490 154.5038
618.607979 80.470 154.4108
623.090667 80.451 154.3034
627.605839 80.430 154.1799
632.153730 80.408 154.0392
636.734576 80.384 153.8802
641.348617 80.357 153.7023
645.996094 80.328 153.5047
650.677248 80.294 153.2874
655.392323 80.256 153.0507
660.141566 80.213 152.7957
664.925224 80.165 152.5240
669.743546 80.110 152.2384
674.596784 80.049 151.9423
679.485191 79.980 151.6401
684.409020 79.902 151.3369
689.368530 79.816 151.0388
694.363979 79.721 150.7527
699.395626 79.617 150.4861
704.463736 79.502 150.2476
709.568570 79.378 150.0463
714.710396 79.244 149.8919
719.889483 79.101 149.7946
725.106099 78.949 149.7645
730.360516 78.789 149.8113
735.653010 78.622 149.9437
740.983855 78.449 150.1691
746.353329 78.273 150.4930
751.761713 78.095 150.9184
757.209288 77.917 151.4454
762.696339 77.741 152.0715
768.223151 77.569 152.7917
773.790013 77.402 153.5987
779.397214 77.244 154.4842
785.045047 77.093 155.4394
790.733808 76.953 156.4558
796.463791 76.822 157.5253
802.235296 76.703 158.6404
808.048623 76.596 159.7937
813.904077 76.502 160.9777
819.801961 76.421 162.1841
825.742584 76.354 163.4036
831.726255 76.301 164.6261
837.753287 76.262 165.8408
843.823992 76.238 167.0368
849.938689 76.227 168.2040
856.097695 76.228 169.3337
862.301332 76.241 170.4190
868.549922 76.265 171.4556
874.843793 76.297 172.4415
881.183272 76.337 173.3772
887.568689 76.383 174.2648
894.000378 76.435 175.1077
900.478673 76.492 175.9092
907.003913 76.555 176.6725
913.576437 76.623 177.3991
920.196588 76.697 178.0887
926.864712 76.776 178.7395
933.581156 76.861 179.3478
940.346270 76.950 179.9088
947.160407 77.045 -179.5820
954.023921 77.144 -179.1289
960.937172 77.246 -178.7348
967.900519 77.350 -178.4012
974.914325 77.455 -178.1276
981.978956 77.560 -177.9120
989.094780 77.663 -177.7509
996.262169 77.765 -177.6394
1003.481495 77.864 -177.5717
1010.753136 77.960 -177.5415
1018.077470 78.052 -177.5420
1025.454879 78.140 -177.5669
1032.885748 78.224 -177.6102
1040.370463 78.304 -177.6666
1047.909417 78.380 -177.7311
1055.503000 78.452 -177.7996
1063.151610 78.521 -177.8683
1070.855645 78.586 -177.9343
1078.615506 78.649 -177.9962
1086.431599 78.709 -178.0537
1094.304330 78.766 -178.1082
1102.234110 78.821 -178.1619
1110.221353 78.873 -178.2170
1118.266475 78.921 -178.2745
1126.369895 78.965 -178.3333
1134.532035 79.003 -178.3895
1142.753322 79.036 -178.4362
1151.034184 79.061 -178.4640
1159.375052 79.081 -178.4617
1167.776361 79.096 -178.4175
1176.238550 79.107 -178.3211
1184.762060 79.116 -178.1645
1193.347334 79.126 -177.9440
1201.994821 79.139 -177.6611
1210.704971 79.157 -177.3227
1219.478238 79.183 -176.9404
1228.315080 79.218 -176.5291
1237.215957 79.262 -176.1054
1246.181334 79.315 -175.6857
1255.211678 79.377 -175.2845
1264.307459 79.446 -174.9136
1273.469152 79.520 -174.5807
1282.697235 79.597 -174.2902
1291.992188 79.677 -174.0425
1301.354495 79.757 -173.8347
1310.784647 79.836 -173.6616
1320.283132 79.914 -173.5163
1329.850448 79.991 -173.3914
1339.487093 80.067 -173.2810
1349.193569 80.144 -173.1821
1358.970381 80.222 -173.0958
1368.818041 80.303 -173.0278
1378.737061 80.386 -172.9875
1388.727958 80.473 -172.9866
1398.791253 80.562 -173.0368
1408.927471 80.651 -173.1483
1419.137140 80.740 -173.3285
1429.420793 80.826 -173.5820
1439.778965 80.906 -173.9103
1450.212197 80.980 -174.3123
1460.721033 81.045 -174.7842
1471.306019 81.097 -175.3199
1481.967709 81.136 -175.9104
1492.706658 81.159 -176.5443
1503.523426 81.163 -177.2071
1514.418576 81.147 -177.8816
1525.392678 81.110 -178.5473
1536.446302 81.049 -179.1808
1547.580025 80.965 -179.7551
1558.794428 80.856 179.7595
1570.090095 80.724 179.3958
1581.467615 80.570 179.1880
1592.927581 80.397 179.1703
1604.470591 80.208 179.3731
1616.097246 80.010 179.8200
1627.808153 79.808 -179.4769
1639.603922 79.610 -178.5199
1651.485168 79.423 -177.3265
1663.452510 79.252 -175.9293
1675.506573 79.104 -174.3730
1687.647984 78.981 -172.7104
1699.877377 78.885 -170.9971
1712.195390 78.815 -169.2865
1724.602663 78.768 -167.6237
1737.099845 78.742 -166.0427
1749.687587 78.731 -164.5646
1762.366544 78.731 -163.1975
1775.137379 78.738 -161.9388
1788.000756 78.746 -160.7773
1800.957346 78.754 -159.6960
1814.007826 78.758 -158.6742
1827.152874 78.757 -157.6896
1840.393177 78.751 -156.7203
1853.729425 78.739 -155.7472
1867.162312 78.724 -154.7563
1880.692540 78.706 -153.7397
1894.320813 78.687 -152.6962
1908.047843 78.668 -151.6290
1921.874344 78.650 -150.5439
1935.801038 78.634 -149.4478
1949.828650 78.620 -148.3475
1963.957912 78.608 -147.2500
1978.189561 78.599 -146.1628
1992.524338 78.592 -145.0941
2006.962991 78.586 -144.0516
2021.506272 78.582 -143.0417
2036.154940 78.577 -142.0679
2050.909758 78.571 -141.1292
2065.771495 78.562 -140.2205
2080.740927 78.550 -139.3333
2095.818833 78.535 -138.4578
2111.006001 78.517 -137.5848
2126.303220 78.497 -136.7080
2141.711290 78.475 -135.8247
2157.231013 78.454 -134.9358
2172.863198 78.435 -134.0449
2188.608660 78.417 -133.1568
2204.468221 78.402 -132.2772
2220.442706 78.390 -131.4126
2236.532950 78.381 -130.5702
2252.739789 78.374 -129.7582
2269.064070 78.370 -128.9847
2285.506644 78.367 -128.2571
2302.068367 78.363 -127.5807
2318.750104 78.358 -126.9578
2335.552723 78.350 -126.3879
2352.477101 78.336 -125.8674
2369.524119 78.315 -125.3896
2386.694668 78.285 -124.9449
2403.989641 78.245 -124.5205
2421.409941 78.194 -124.1008
2438.956476 78.131 -123.6678
2456.630160 78.054 -123.2009
2474.431915 77.965 -122.6772
2492.362668 77.863 -122.0715
2510.423356 77.749 -121.3553
2528.614918 77.625 -120.4968
2546.938304 77.493 -119.4600
2565.394469 77.358 -118.2069
2583.984375 77.224 -116.7023
2602.708991 77.099 -114.9214
2621.569293 76.991 -112.8592
2640.566265 76.910 -110.5384
2659.700897 76.863 -108.0118
2678.974186 76.855 -105.3568
2698.387137 76.889 -102.6616
2717.940763 76.961 -100.0098
2737.636082 77.068 -97.4666
2757.474121 77.203 -95.0731
2777.455915 77.361 -92.8474
2797.582506 77.536 -90.7895
2817.854942 77.722 -88.8898
2838.274281 77.916 -87.1352
2858.841586 78.115 -85.5137
2879.557931 78.317 -84.0163
2900.424394 78.518 -82.6351
2921.442065 78.715 -81.3621
2942.612039 78.906 -80.1859
2963.935418 79.089 -79.0903
2985.413316 79.262 -78.0545
3007.046852 79.424 -77.0546
3028.837153 79.575 -76.0667
3050.785356 79.716 -75.0702
3072.892604 79.851 -74.0507
3095.160050 79.980 -73.0028
3117.588856 80.107 -71.9312
3140.180190 80.233 -70.8495
3162.935230 80.358 -69.7772
3185.855163 80.483 -68.7357
3208.941182 80.606 -67.7452
3232.194493 80.726 -66.8218
3255.616307 80.841 -65.9776
3279.207844 80.949 -65.2202
3302.970336 81.047 -64.5544
3326.905021 81.133 -63.9823
3351.013146 81.205 -63.5031
3375.295969 81.261 -63.1123
3399.754755 81.296 -62.8001
3424.390779 81.308 -62.5486
3449.205326 81.294 -62.3315
3474.199690 81.251 -62.1121
3499.375173 81.177 -61.8440
3524.733088 81.072 -61.4719
3550.274757 80.937 -60.9336
3576.001511 80.776 -60.1645
3601.914692 80.595 -59.1055
3628.015651 80.402 -57.7132
3654.305748 80.208 -55.9706
3680.786354 80.026 -53.8951
3707.458849 79.866 -51.5378
3734.324624 79.736 -48.9727
3761.385080 79.641 -46.2794
3788.641627 79.584 -43.5282
3816.095686 79.564 -40.7725
3843.748688 79.579 -38.0515
3871.602076 79.629 -35.3968
3899.657300 79.711 -32.8377
3927.915825 79.821 -30.4017
3956.379122 79.956 -28.1108
3985.048676 80.109 -25.9783
4013.925981 80.277 -24.0088
4043.012544 80.454 -22.2001
4072.309879 80.636 -20.5468
4101.819515 80.820 -19.0416
4131.542990 81.000 -17.6757
4161.481854 81.174 -16.4364
4191.637667 81.337 -15.3058
4222.012001 81.486 -14.2607
4252.606441 81.621 -13.2752
4283.422580 81.739 -12.3241
4314.462026 81.842 -11.3857
4345.726396 81.929 -10.4432
4377.217321 82.000 -9.4829
4408.936442 82.057 -8.4922
4440.885413 82.099 -7.4581
4473.065899 82.127 -6.3667
4505.479579 82.143 -5.2051
4538.128141 82.147 -3.9631
4571.013288 82.143 -2.6343
4604.136735 82.132 -1.2162
4637.500207 82.116 0.2909
4671.105446 82.097 1.8849
4704.954201 82.076 3.5628
4739.048239 82.056 5.3217
4773.389336 82.036 7.1589
4807.979283 82.020 9.0719
4842.819883 82.009 11.0582
4877.912952 82.004 13.1150
4913.260320 82.007 15.2392
4948.863830 82.019 17.4271
4984.725337 82.043 19.6740
5020.846712 82.080 21.9732
5057.229836 82.132 24.3144
5093.876609 82.201 26.6832
5130.788938 82.287 29.0609
5167.968750 82.392 31.4271
5205.417982 82.515 33.7626
5243.138586 82.655 36.0523
5281.132530 82.810 38.2855
5319.401793 82.981 40.4549
5357.948371 83.165 42.5544
5396.774274 83.363 44.5779
5435.881525 83.572 46.5187
5475.272163 83.793 48.3699
5514.948243 84.023 50.1239
5554.911831 84.262 51.7713
5595.165012 84.508 53.2993
5635.709884 84.760 54.6907
5676.548561 85.015 55.9250
5717.683172 85.270 56.9824
5759.115861 85.520 57.8475
5800.848789 85.761 58.5119
5842.884130 85.989 58.9745
5885.224077 86.200 59.2399
5927.870837 86.389 59.3169
5970.826633 86.552 59.2180
6014.093704 86.687 58.9588
6057.674306 86.789 58.5576
6101.570711 86.857 58.0347
6145.785208 86.887 57.4125
6190.320101 86.877 56.7152
6235.177712 86.825 55.9694
6280.360380 86.728 55.2041
6325.870460 86.585 54.4513
6371.710325 86.396 53.7460
6417.882365 86.158 53.1261
6464.388986 85.872 52.6316
6511.232613 85.540 52.3027
6558.415689 85.163 52.1766
6605.940673 84.744 52.2846
6653.810042 84.287 52.6483
6702.026292 83.797 53.2787
6750.591937 83.276 54.1783
6799.509509 82.728 55.3474
6848.781558 82.155 56.7899
6898.410653 81.559 58.5176
6948.399380 80.941 60.5522
6998.750346 80.303 62.9274
7049.466176 79.648 65.6910
7100.549514 78.978 68.9080
7152.003023 78.297 72.6646
7203.829385 77.612 77.0747
7256.031302 76.930 82.2868
7308.611496 76.263 88.4877
7361.572708 75.625 95.8942
7414.917698 75.035 104.7121
7468.649249 74.512 115.0369
7522.770160 74.078 126.6821
7577.283253 73.751 139.0333
7632.191371 73.541 151.1355
7687.497376 73.451 162.0709
7743.204151 73.469 171.3088
7799.314600 73.573 178.7490
7855.831649 73.739 -175.4449
7912.758244 73.937 -171.0118
7970.097352 74.143 -167.6847
8027.851962 74.336 -165.2220
8086.025087 74.501 -163.4077
8144.619758 74.628 -162.0359
8203.639030 74.714 -160.8874
8263.085980 74.764 -159.6892
8322.963708 74.788 -158.0413
8383.275334 74.804 -155.2466
8444.024002 74.837 -149.8630
8505.212881 74.914 -138.4072
8566.845160 75.058 -112.9332
8628.924051 75.284 -73.7034
8691.452792 75.593 -47.4464
8754.434642 75.975 -35.5652
8817.872884 76.409 -29.9565
8881.770826 76.873 -27.0157
8946.131799 77.349 -25.2819
9010.959157 77.821 -24.0910
9076.256282 78.281 -23.1129
9142.026576 78.724 -22.1769
9208.273470 79.147 -21.1978
9275.000415 79.547 -20.1371
9342.210891 79.925 -18.9812
9409.908403 80.279 -17.7249
9478.096478 80.607 -16.3611
9546.778672 80.911 -14.8732
9615.958566 81.189 -13.2317
9685.639765 81.447 -11.3945
9755.825904 81.688 -9.3162
9826.520640 81.923 -6.9644
9897.727659 82.164 -4.3444
9969.450674 82.421 -1.5178
10041.693423 82.702 1.3976
10114.459673 83.012 4.2474
10187.753217 83.346 6.8717
10261.577877 83.696 9.1337
10335.937500 84.049 10.9384
10410.835964 84.392 12.2381
10486.277173 84.710 13.0283
10562.265060 84.988 13.3392
10638.803587 85.215 13.2277
10715.896743 85.378 12.7703
10793.548548 85.470 12.0580
10871.763050 85.485 11.1911
10950.544327 85.421 10.2727
11029.896485 85.278 9.4036
11109.823662 85.059 8.6771
11190.330024 84.770 8.1754
11271.419768 84.417 7.9679
11353.097122 84.009 8.1090
11435.366344 83.555 8.6384
11518.231722 83.064 9.5807
11601.697577 82.545 10.9445
11685.768261 82.009 12.7207
11770.448155 81.467 14.8782
11855.741674 80.928 17.3583
11941.653265 80.404 20.0708
12028.187408 79.906 22.8947
12115.348612 79.443 25.6844
12203.141422 79.024 28.2837
12291.570415 78.654 30.5396
12380.640201 78.336 32.3153
12470.355424 78.069 33.4980
12560.720760 77.847 34.0006
12651.740920 77.662 33.7606
12743.420650 77.504 32.7369
12835.764729 77.360 30.9079
12928.777972 77.218 28.2697
13022.465227 77.063 24.8358
13116.831378 76.887 20.6395
13211.881345 76.679 15.7363
13307.620084 76.436 10.2092
13404.052584 76.153 4.1736
13501.183875 75.834 -2.2196
13599.019019 75.480 -8.7863
13697.563116 75.098 -15.3195
13796.821305 74.695 -21.6089
13896.798760 74.278 -27.4634
13997.500692 73.856 -32.7293
14098.932352 73.435 -37.3007
14201.099028 73.022 -41.1171
14304.006046 72.622 -44.1566
14407.658770 72.239 -46.4234
14512.062604 71.877 -47.9383
14617.222992 71.535 -48.7305
14723.145416 71.218 -48.8326
14829.835397 70.925 -48.2784
14937.298497 70.658 -47.1021
15045.540320 70.421 -45.3404
15154.566507 70.216 -43.0358
15264.382743 70.048 -40.2417
15374.994752 69.920 -37.0286
15486.408302 69.838 -33.4862
15598.629201 69.805 -29.7218
15711.663298 69.823 -25.8514
15825.516487 69.894 -21.9899
15940.194703 70.017 -18.2429
16055.703925 70.190 -14.7056
16172.050174 70.411 -11.4670
16289.239516 70.675 -8.6145
16407.278061 70.976 -6.2330
16526.171961 71.305 -4.3977
16645.927415 71.650 -3.1630
16766.550667 71.999 -2.5514
16888.048005 72.341 -2.5497
17010.425762 72.668 -3.1101
17133.690320 72.974 -4.1555
17257.848103 73.263 -5.5883
17382.905584 73.543 -7.3013
17508.869284 73.830 -9.1911
17635.745768 74.142 -11.1761
17763.541652 74.497 -13.2180
17892.263597 74.908 -15.3438
18021.918315 75.377 -17.6641
18152.512564 75.896 -20.3760
18284.053153 76.444 -23.7413
18416.546939 76.999 -28.0449
18550.000830 77.534 -33.5492
18684.421783 78.028 -40.4601
18819.816805 78.465 -48.9061
18956.192956 78.836 -58.9050
19093.557344 79.136 -70.2877
19231.917131 79.368 -82.5830
19371.279531 79.536 -94.9503
19511.651807 79.652 -106.3033
19653.041280 79.725 -115.6075
19795.455318 79.766 -122.1282
19938.901348 79.784 -125.4669
