* Measurement data measured by REW V5.31.3
* Source: EXCL: Headset (USB-C to 3.5mm Headphone Jack Adapter), MICROPHONE (Master Volume), 0, volume: 0.750
* Format: 256k Log Swept Sine, 1 sweep at -12.0 dBFS with no timing reference
* Dated: Apr 7, 2025 5:05:04 PM
* REW Settings:
*  C-weighting compensation: Off
*  Target level: 75.0 dB
* Note: ; 
* Measurement: Maxwell (Wired) L7
* Smoothing: 1/6 octave
* Frequency Step: 96 ppo
* Start Frequency: 20.0 Hz
*
* Freq(Hz) SPL(dB) Phase(degrees)
20.187378 81.652 -22.4929
20.333664 81.718 -22.7935
20.481010 81.807 -23.1967
20.629424 81.914 -23.6935
20.778913 82.036 -24.2748
20.929486 82.172 -24.9327
21.081150 82.317 -25.6609
21.233912 82.471 -26.4552
21.387782 82.632 -27.3129
21.542767 82.798 -28.2329
21.698874 82.968 -29.2140
21.856113 83.141 -30.2549
22.014492 83.314 -31.3529
22.174018 83.487 -32.5030
22.334700 83.656 -33.6978
22.496546 83.821 -34.9276
22.659566 83.979 -36.1808
22.823766 84.128 -37.4448
22.989157 84.269 -38.7074
23.155745 84.401 -39.9579
23.323542 84.525 -41.1894
23.492554 84.640 -42.3988
23.662790 84.749 -43.5888
23.834261 84.852 -44.7667
24.006973 84.950 -45.9450
24.180938 85.043 -47.1386
24.356163 85.131 -48.3637
24.532658 85.213 -49.6348
24.710431 85.289 -50.9628
24.889493 85.355 -52.3525
25.069853 85.410 -53.8020
25.251519 85.454 -55.3022
25.434502 85.486 -56.8376
25.618811 85.506 -58.3877
25.804456 85.516 -59.9299
25.991445 85.519 -61.4414
26.179790 85.519 -62.9030
26.369500 85.519 -64.3008
26.560584 85.524 -65.6290
26.753053 85.538 -66.8902
26.946917 85.563 -68.0949
27.142185 85.600 -69.2597
27.338869 85.648 -70.4045
27.536977 85.704 -71.5490
27.736522 85.764 -72.7097
27.937512 85.823 -73.8979
28.139959 85.878 -75.1184
28.343872 85.924 -76.3699
28.549264 85.958 -77.6460
28.756143 85.979 -78.9373
28.964522 85.986 -80.2324
29.174411 85.981 -81.5206
29.385821 85.966 -82.7927
29.598763 85.944 -84.0418
29.813248 85.918 -85.2643
30.029287 85.894 -86.4590
30.246891 85.873 -87.6267
30.466073 85.859 -88.7698
30.686842 85.854 -89.8908
30.909212 85.860 -90.9922
31.133193 85.876 -92.0762
31.358797 85.901 -93.1439
31.586035 85.936 -94.1962
31.814921 85.977 -95.2335
32.045465 86.023 -96.2562
32.277680 86.071 -97.2645
32.511577 86.119 -98.2588
32.747169 86.165 -99.2395
32.984469 86.207 -100.2069
33.223488 86.246 -101.1614
33.464239 86.280 -102.1033
33.706735 86.309 -103.0326
33.950987 86.336 -103.9494
34.197010 86.361 -104.8536
34.444816 86.386 -105.7444
34.694417 86.413 -106.6207
34.945827 86.444 -107.4804
35.199059 86.479 -108.3204
35.454126 86.521 -109.1369
35.711041 86.568 -109.9257
35.969818 86.621 -110.6826
36.230470 86.679 -111.4045
36.493011 86.742 -112.0900
36.757455 86.809 -112.7401
37.023814 86.879 -113.3586
37.292104 86.951 -113.9521
37.562338 87.024 -114.5288
37.834530 87.097 -115.0980
38.108695 87.169 -115.6684
38.384846 87.241 -116.2476
38.662999 87.313 -116.8403
38.943167 87.384 -117.4487
39.225365 87.456 -118.0727
39.509608 87.530 -118.7099
39.795911 87.605 -119.3577
40.084289 87.684 -120.0135
40.374756 87.766 -120.6761
40.667328 87.851 -121.3457
40.962020 87.939 -122.0250
41.258848 88.028 -122.7181
41.557827 88.117 -123.4309
41.858972 88.206 -124.1706
42.162299 88.292 -124.9450
42.467824 88.376 -125.7622
42.775564 88.457 -126.6295
43.085533 88.534 -127.5527
43.397749 88.609 -128.5350
43.712227 88.680 -129.5762
44.028983 88.749 -130.6723
44.348036 88.814 -131.8160
44.669400 88.876 -132.9978
44.993093 88.934 -134.2073
45.319131 88.987 -135.4345
45.647532 89.035 -136.6714
45.978313 89.076 -137.9120
46.311491 89.109 -139.1525
46.647083 89.134 -140.3905
46.985107 89.149 -141.6252
47.325581 89.155 -142.8561
47.668521 89.151 -144.0841
48.013947 89.138 -145.3104
48.361876 89.117 -146.5372
48.712326 89.088 -147.7664
49.065315 89.052 -148.9993
49.420863 89.008 -150.2355
49.778987 88.957 -151.4725
50.139706 88.899 -152.7064
50.503039 88.833 -153.9319
50.869005 88.760 -155.1436
51.237623 88.680 -156.3365
51.608912 88.595 -157.5054
51.982891 88.503 -158.6451
52.359580 88.407 -159.7497
52.739000 88.306 -160.8129
53.121168 88.201 -161.8283
53.506106 88.092 -162.7907
53.893833 87.980 -163.6965
54.284370 87.865 -164.5442
54.677737 87.747 -165.3349
55.073955 87.627 -166.0715
55.473043 87.506 -166.7586
55.875024 87.383 -167.4018
56.279917 87.260 -168.0075
56.687745 87.136 -168.5817
57.098527 87.013 -169.1300
57.512287 86.891 -169.6571
57.929045 86.770 -170.1661
58.348822 86.652 -170.6591
58.771642 86.538 -171.1366
59.197525 86.430 -171.5984
59.626495 86.328 -172.0439
60.058573 86.234 -172.4727
60.493782 86.150 -172.8853
60.932145 86.075 -173.2824
61.373685 86.008 -173.6652
61.818424 85.949 -174.0350
62.266386 85.896 -174.3927
62.717593 85.848 -174.7392
63.172071 85.803 -175.0744
63.629842 85.760 -175.3979
64.090930 85.720 -175.7078
64.555359 85.681 -176.0015
65.023154 85.643 -176.2756
65.494339 85.608 -176.5271
65.968938 85.575 -176.7541
66.446976 85.543 -176.9566
66.928478 85.513 -177.1367
67.413469 85.485 -177.2983
67.901975 85.458 -177.4461
68.394021 85.433 -177.5844
68.889632 85.410 -177.7169
69.388835 85.388 -177.8462
69.891655 85.369 -177.9740
70.398118 85.352 -178.1018
70.908252 85.335 -178.2310
71.422083 85.320 -178.3638
71.939636 85.306 -178.5021
72.460941 85.292 -178.6482
72.986023 85.277 -178.8041
73.514909 85.261 -178.9713
74.047629 85.245 -179.1508
74.584208 85.227 -179.3431
75.124676 85.208 -179.5481
75.669061 85.187 -179.7653
76.217390 85.165 -179.9938
76.769692 85.142 179.7670
77.325997 85.117 179.5176
77.886333 85.092 179.2582
78.450730 85.066 178.9889
79.019216 85.039 178.7095
79.591822 85.011 178.4200
80.168577 84.982 178.1201
80.749512 84.951 177.8101
81.334656 84.920 177.4902
81.924040 84.887 177.1615
82.517696 84.852 176.8257
83.115653 84.817 176.4856
83.717943 84.779 176.1446
84.324598 84.741 175.8063
84.935649 84.701 175.4741
85.551128 84.661 175.1503
86.171066 84.620 174.8358
86.795497 84.579 174.5299
87.424453 84.537 174.2310
88.057967 84.494 173.9370
88.696071 84.449 173.6456
89.338800 84.404 173.3552
89.986185 84.356 173.0650
90.638262 84.308 172.7756
91.295065 84.257 172.4881
91.956626 84.206 172.2042
92.622982 84.153 171.9259
93.294166 84.098 171.6550
93.970214 84.042 171.3931
94.651161 83.986 171.1420
95.337042 83.929 170.9030
96.027894 83.872 170.6769
96.723752 83.815 170.4642
97.424652 83.759 170.2642
98.130631 83.704 170.0759
98.841726 83.650 169.8976
99.557974 83.598 169.7280
100.279412 83.547 169.5657
101.006078 83.498 169.4102
101.738010 83.450 169.2614
102.475245 83.404 169.1197
103.217823 83.360 168.9854
103.965782 83.318 168.8589
104.719161 83.277 168.7404
105.477999 83.239 168.6301
106.242336 83.202 168.5283
107.012212 83.168 168.4352
107.787666 83.136 168.3509
108.568740 83.106 168.2747
109.355474 83.077 168.2053
110.147909 83.051 168.1412
110.946086 83.027 168.0812
111.750047 83.004 168.0246
112.559834 82.982 167.9717
113.375489 82.962 167.9228
114.197055 82.943 167.8782
115.024574 82.925 167.8373
115.858089 82.908 167.7982
116.697645 82.893 167.7577
117.543284 82.879 167.7121
118.395051 82.866 167.6578
119.252990 82.855 167.5919
120.117147 82.846 167.5123
120.987565 82.838 167.4185
121.864291 82.832 167.3111
122.747370 82.827 167.1911
123.636848 82.823 167.0596
124.532771 82.819 166.9168
125.435187 82.814 166.7625
126.344142 82.809 166.5958
127.259684 82.803 166.4156
128.181860 82.795 166.2214
129.110718 82.786 166.0134
130.046308 82.776 165.7925
130.988677 82.763 165.5601
131.937875 82.748 165.3178
132.893951 82.731 165.0669
133.856956 82.711 164.8082
134.826938 82.688 164.5418
135.803950 82.661 164.2681
136.788041 82.629 163.9874
137.779264 82.594 163.7011
138.777669 82.554 163.4113
139.783309 82.510 163.1210
140.796237 82.462 162.8331
141.816504 82.409 162.5507
142.844165 82.352 162.2763
143.879273 82.290 162.0122
144.921881 82.224 161.7602
145.972045 82.155 161.5221
147.029819 82.082 161.2999
148.095257 82.005 161.0959
149.168417 81.926 160.9124
150.249353 81.844 160.7516
151.338121 81.760 160.6158
152.434780 81.675 160.5071
153.539385 81.588 160.4271
154.651995 81.500 160.3774
155.772667 81.412 160.3589
156.901460 81.324 160.3725
158.038432 81.237 160.4188
159.183644 81.151 160.4982
160.337154 81.066 160.6104
161.499023 80.983 160.7548
162.669312 80.901 160.9302
163.848081 80.821 161.1354
165.035392 80.743 161.3688
166.231306 80.668 161.6290
167.435887 80.596 161.9139
168.649196 80.527 162.2211
169.871298 80.461 162.5477
171.102255 80.400 162.8904
172.342133 80.342 163.2458
173.590995 80.289 163.6105
174.848907 80.241 163.9816
176.115934 80.198 164.3565
177.392143 80.160 164.7339
178.677599 80.126 165.1130
179.972371 80.098 165.4933
181.276525 80.073 165.8746
182.590129 80.053 166.2563
183.913252 80.037 166.6368
185.245964 80.024 167.0141
186.588332 80.015 167.3851
187.940428 80.009 167.7458
189.302322 80.005 168.0913
190.674085 80.005 168.4163
192.055788 80.007 168.7159
193.447503 80.011 168.9865
194.849303 80.017 169.2263
196.261262 80.025 169.4350
197.683452 80.033 169.6136
199.115948 80.042 169.7635
200.558824 80.051 169.8871
202.012156 80.060 169.9873
203.476019 80.068 170.0675
204.950490 80.074 170.1313
206.435646 80.079 170.1819
207.931564 80.084 170.2224
209.438322 80.087 170.2556
210.955998 80.090 170.2846
212.484672 80.092 170.3119
214.024424 80.094 170.3393
215.575333 80.096 170.3682
217.137481 80.098 170.3993
218.710948 80.101 170.4330
220.295818 80.104 170.4694
221.892172 80.107 170.5085
223.500094 80.111 170.5504
225.119668 80.115 170.5953
226.750978 80.119 170.6436
228.394109 80.125 170.6961
230.049147 80.131 170.7537
231.716178 80.139 170.8174
233.395289 80.147 170.8878
235.086567 80.157 170.9648
236.790102 80.167 171.0481
238.505980 80.179 171.1368
240.234293 80.193 171.2301
241.975130 80.208 171.3272
243.728581 80.225 171.4272
245.494739 80.244 171.5291
247.273695 80.264 171.6321
249.065542 80.285 171.7357
250.870374 80.308 171.8393
252.688284 80.332 171.9420
254.519367 80.357 172.0430
256.363720 80.383 172.1405
258.221437 80.410 172.2325
260.092616 80.439 172.3160
261.977354 80.470 172.3880
263.875750 80.503 172.4454
265.787903 80.537 172.4859
267.713911 80.573 172.5074
269.653877 80.611 172.5090
271.607900 80.650 172.4899
273.576083 80.689 172.4503
275.558528 80.728 172.3910
277.555338 80.766 172.3127
279.566619 80.804 172.2167
281.592474 80.840 172.1039
283.633009 80.874 171.9760
285.688331 80.905 171.8342
287.758546 80.935 171.6802
289.843763 80.961 171.5161
291.944090 80.984 171.3437
294.059638 81.005 171.1652
296.190515 81.022 170.9833
298.336833 81.035 170.8008
300.498705 81.046 170.6209
302.676243 81.054 170.4468
304.869559 81.060 170.2814
307.078770 81.063 170.1276
309.303989 81.063 169.9880
311.545334 81.062 169.8652
313.802919 81.060 169.7614
316.076865 81.056 169.6782
318.367288 81.052 169.6167
320.674309 81.047 169.5774
322.998047 81.041 169.5604
325.338624 81.036 169.5654
327.696162 81.030 169.5923
330.070783 81.026 169.6406
332.462612 81.021 169.7100
334.871773 81.018 169.7996
337.298392 81.015 169.9083
339.742595 81.013 170.0341
342.204510 81.013 170.1747
344.684265 81.013 170.3275
347.181989 81.015 170.4901
349.697813 81.017 170.6601
352.231868 81.021 170.8354
354.784285 81.026 171.0141
357.355198 81.033 171.1944
359.944741 81.040 171.3749
362.553049 81.050 171.5547
365.180258 81.060 171.7329
367.826505 81.073 171.9092
370.491927 81.087 172.0830
373.176665 81.102 172.2540
375.880856 81.121 172.4215
378.604644 81.141 172.5850
381.348169 81.163 172.7435
384.111575 81.188 172.8961
386.895006 81.215 173.0418
389.698607 81.245 173.1794
392.522524 81.277 173.3077
395.366904 81.310 173.4257
398.231895 81.346 173.5323
401.117648 81.384 173.6268
404.024312 81.424 173.7080
406.952038 81.465 173.7745
409.900981 81.508 173.8244
412.871292 81.552 173.8557
415.863128 81.597 173.8660
418.876643 81.642 173.8534
421.911996 81.687 173.8159
424.969344 81.731 173.7521
428.048847 81.775 173.6614
431.150666 81.818 173.5432
434.274961 81.859 173.3974
437.421897 81.898 173.2246
440.591636 81.936 173.0254
443.784345 81.971 172.8006
447.000189 82.003 172.5513
450.239337 82.033 172.2785
453.501956 82.061 171.9831
456.788219 82.085 171.6659
460.098294 82.107 171.3275
463.432356 82.125 170.9686
466.790578 82.140 170.5898
470.173135 82.152 170.1922
473.580203 82.161 169.7772
477.011961 82.166 169.3463
480.468586 82.167 168.9022
483.950259 82.165 168.4475
487.457163 82.159 167.9857
490.989478 82.148 167.5204
494.547390 82.134 167.0556
498.131084 82.116 166.5953
501.740748 82.094 166.1436
505.376568 82.069 165.7043
509.038735 82.040 165.2811
512.727439 82.010 164.8774
516.442874 81.977 164.4958
520.185232 81.944 164.1384
523.954708 81.910 163.8061
527.751500 81.877 163.4988
531.575805 81.846 163.2153
535.427822 81.816 162.9535
539.307753 81.789 162.7104
543.215800 81.765 162.4828
547.152165 81.743 162.2673
551.117055 81.726 162.0608
555.110677 81.711 161.8603
559.133237 81.700 161.6631
563.184947 81.692 161.4672
567.266018 81.686 161.2707
571.376661 81.683 161.0720
575.517092 81.681 160.8699
579.687526 81.681 160.6635
583.888181 81.681 160.4518
588.119275 81.683 160.2341
592.381030 81.683 160.0093
596.673667 81.684 159.7770
600.997410 81.683 159.5366
605.352485 81.681 159.2875
609.739119 81.677 159.0292
614.157540 81.670 158.7614
618.607979 81.661 158.4838
623.090667 81.649 158.1965
627.605839 81.633 157.8997
632.153730 81.613 157.5941
636.734576 81.589 157.2806
641.348617 81.561 156.9605
645.996094 81.527 156.6354
650.677248 81.489 156.3068
655.392323 81.446 155.9769
660.141566 81.397 155.6476
664.925224 81.342 155.3214
669.743546 81.282 155.0009
674.596784 81.216 154.6888
679.485191 81.144 154.3889
684.409020 81.066 154.1045
689.368530 80.982 153.8400
694.363979 80.891 153.6000
699.395626 80.794 153.3895
704.463736 80.691 153.2143
709.568570 80.582 153.0803
714.710396 80.466 152.9942
719.889483 80.345 152.9628
725.106099 80.218 152.9935
730.360516 80.088 153.0933
735.653010 79.953 153.2688
740.983855 79.817 153.5255
746.353329 79.681 153.8664
751.761713 79.547 154.2921
757.209288 79.416 154.7999
762.696339 79.291 155.3834
768.223151 79.173 156.0333
773.790013 79.065 156.7378
779.397214 78.967 157.4835
785.045047 78.881 158.2567
790.733808 78.805 159.0442
796.463791 78.742 159.8339
802.235296 78.690 160.6159
808.048623 78.648 161.3820
813.904077 78.617 162.1260
819.801961 78.596 162.8433
825.742584 78.583 163.5306
831.726255 78.578 164.1853
837.753287 78.581 164.8054
843.823992 78.591 165.3890
849.938689 78.607 165.9345
856.097695 78.628 166.4405
862.301332 78.654 166.9059
868.549922 78.684 167.3303
874.843793 78.717 167.7139
881.183272 78.752 168.0579
887.568689 78.790 168.3643
894.000378 78.828 168.6357
900.478673 78.868 168.8753
907.003913 78.908 169.0862
913.576437 78.948 169.2714
920.196588 78.989 169.4333
926.864712 79.030 169.5742
933.581156 79.072 169.6958
940.346270 79.115 169.8000
947.160407 79.158 169.8889
954.023921 79.201 169.9650
960.937172 79.246 170.0316
967.900519 79.291 170.0925
974.914325 79.338 170.1509
981.978956 79.387 170.2093
989.094780 79.440 170.2678
996.262169 79.497 170.3240
1003.481495 79.558 170.3729
1010.753136 79.624 170.4068
1018.077470 79.696 170.4170
1025.454879 79.771 170.3947
1032.885748 79.849 170.3326
1040.370463 79.929 170.2251
1047.909417 80.008 170.0698
1055.503000 80.085 169.8669
1063.151610 80.158 169.6196
1070.855645 80.226 169.3337
1078.615506 80.287 169.0172
1086.431599 80.341 168.6798
1094.304330 80.386 168.3322
1102.234110 80.422 167.9857
1110.221353 80.449 167.6512
1118.266475 80.469 167.3394
1126.369895 80.481 167.0594
1134.532035 80.486 166.8195
1142.753322 80.486 166.6263
1151.034184 80.481 166.4851
1159.375052 80.472 166.4003
1167.776361 80.462 166.3756
1176.238550 80.451 166.4140
1184.762060 80.441 166.5180
1193.347334 80.433 166.6898
1201.994821 80.428 166.9304
1210.704971 80.430 167.2399
1219.478238 80.440 167.6161
1228.315080 80.460 168.0543
1237.215957 80.492 168.5458
1246.181334 80.537 169.0778
1255.211678 80.598 169.6325
1264.307459 80.674 170.1890
1273.469152 80.765 170.7246
1282.697235 80.871 171.2173
1291.992188 80.989 171.6479
1301.354495 81.117 172.0016
1310.784647 81.253 172.2681
1320.283132 81.393 172.4415
1329.850448 81.536 172.5198
1339.487093 81.678 172.5042
1349.193569 81.819 172.3982
1358.970381 81.957 172.2068
1368.818041 82.089 171.9366
1378.737061 82.215 171.5948
1388.727958 82.334 171.1896
1398.791253 82.444 170.7300
1408.927471 82.546 170.2259
1419.137140 82.637 169.6883
1429.420793 82.719 169.1295
1439.778965 82.790 168.5631
1450.212197 82.852 168.0034
1460.721033 82.905 167.4652
1471.306019 82.950 166.9617
1481.967709 82.990 166.5032
1492.706658 83.027 166.0952
1503.523426 83.062 165.7374
1514.418576 83.099 165.4236
1525.392678 83.136 165.1435
1536.446302 83.176 164.8847
1547.580025 83.217 164.6351
1558.794428 83.257 164.3848
1570.090095 83.296 164.1269
1581.467615 83.332 163.8585
1592.927581 83.362 163.5804
1604.470591 83.387 163.2961
1616.097246 83.404 163.0112
1627.808153 83.413 162.7328
1639.603922 83.414 162.4681
1651.485168 83.407 162.2247
1663.452510 83.393 162.0099
1675.506573 83.373 161.8308
1687.647984 83.347 161.6936
1699.877377 83.318 161.6030
1712.195390 83.287 161.5608
1724.602663 83.257 161.5648
1737.099845 83.229 161.6080
1749.687587 83.206 161.6785
1762.366544 83.187 161.7611
1775.137379 83.173 161.8398
1788.000756 83.164 161.8997
1800.957346 83.157 161.9290
1814.007826 83.152 161.9200
1827.152874 83.144 161.8700
1840.393177 83.134 161.7804
1853.729425 83.118 161.6567
1867.162312 83.094 161.5071
1880.692540 83.062 161.3419
1894.320813 83.021 161.1724
1908.047843 82.971 161.0102
1921.874344 82.910 160.8666
1935.801038 82.840 160.7524
1949.828650 82.762 160.6776
1963.957912 82.676 160.6508
1978.189561 82.584 160.6787
1992.524338 82.487 160.7652
2006.962991 82.387 160.9105
2021.506272 82.287 161.1115
2036.154940 82.187 161.3625
2050.909758 82.090 161.6562
2065.771495 81.996 161.9849
2080.740927 81.905 162.3409
2095.818833 81.820 162.7163
2111.006001 81.740 163.1034
2126.303220 81.665 163.4941
2141.711290 81.596 163.8804
2157.231013 81.533 164.2550
2172.863198 81.475 164.6117
2188.608660 81.421 164.9460
2204.468221 81.370 165.2556
2220.442706 81.322 165.5395
2236.532950 81.276 165.7980
2252.739789 81.232 166.0324
2269.064070 81.187 166.2444
2285.506644 81.143 166.4365
2302.068367 81.099 166.6111
2318.750104 81.053 166.7710
2335.552723 81.006 166.9188
2352.477101 80.956 167.0576
2369.524119 80.904 167.1915
2386.694668 80.849 167.3266
2403.989641 80.789 167.4723
2421.409941 80.724 167.6414
2438.956476 80.653 167.8502
2456.630160 80.578 168.1184
2474.431915 80.499 168.4672
2492.362668 80.417 168.9183
2510.423356 80.337 169.4926
2528.614918 80.262 170.2075
2546.938304 80.197 171.0744
2565.394469 80.147 172.0949
2583.984375 80.120 173.2571
2602.708991 80.119 174.5336
2621.569293 80.150 175.8829
2640.566265 80.214 177.2545
2659.700897 80.310 178.5962
2678.974186 80.435 179.8615
2698.387137 80.587 -178.9848
2717.940763 80.759 -177.9650
2737.636082 80.946 -177.0888
2757.474121 81.144 -176.3563
2777.455915 81.350 -175.7619
2797.582506 81.559 -175.2967
2817.854942 81.770 -174.9514
2838.274281 81.981 -174.7166
2858.841586 82.188 -174.5830
2879.557931 82.391 -174.5411
2900.424394 82.588 -174.5807
2921.442065 82.777 -174.6903
2942.612039 82.958 -174.8575
2963.935418 83.129 -175.0693
2985.413316 83.292 -175.3132
3007.046852 83.446 -175.5779
3028.837153 83.592 -175.8553
3050.785356 83.732 -176.1409
3072.892604 83.866 -176.4344
3095.160050 83.995 -176.7396
3117.588856 84.120 -177.0626
3140.180190 84.239 -177.4109
3162.935230 84.354 -177.7921
3185.855163 84.463 -178.2131
3208.941182 84.565 -178.6806
3232.194493 84.660 -179.2016
3255.616307 84.746 -179.7827
3279.207844 84.822 179.5696
3302.970336 84.885 178.8510
3326.905021 84.933 178.0609
3351.013146 84.961 177.2051
3375.295969 84.967 176.2979
3399.754755 84.946 175.3634
3424.390779 84.894 174.4359
3449.205326 84.811 173.5595
3474.199690 84.694 172.7878
3499.375173 84.546 172.1802
3524.733088 84.368 171.7979
3550.274757 84.170 171.6956
3576.001511 83.959 171.9116
3601.914692 83.750 172.4565
3628.015651 83.554 173.3072
3654.305748 83.386 174.4083
3680.786354 83.255 175.6844
3707.458849 83.169 177.0553
3734.324624 83.129 178.4495
3761.385080 83.137 179.8091
3788.641627 83.192 -178.9117
3816.095686 83.290 -177.7527
3843.748688 83.428 -176.7497
3871.602076 83.600 -175.9326
3899.657300 83.800 -175.3215
3927.915825 84.020 -174.9250
3956.379122 84.256 -174.7428
3985.048676 84.500 -174.7699
4013.925981 84.750 -175.0008
4043.012544 84.998 -175.4303
4072.309879 85.242 -176.0522
4101.819515 85.475 -176.8569
4131.542990 85.694 -177.8302
4161.481854 85.895 -178.9523
4191.637667 86.074 179.7999
4222.012001 86.231 178.4510
4252.606441 86.364 177.0248
4283.422580 86.473 175.5428
4314.462026 86.557 174.0236
4345.726396 86.616 172.4845
4377.217321 86.650 170.9415
4408.936442 86.660 169.4111
4440.885413 86.645 167.9095
4473.065899 86.607 166.4519
4505.479579 86.547 165.0510
4538.128141 86.468 163.7158
4571.013288 86.371 162.4519
4604.136735 86.257 161.2626
4637.500207 86.128 160.1504
4671.105446 85.985 159.1188
4704.954201 85.828 158.1732
4739.048239 85.659 157.3202
4773.389336 85.478 156.5674
4807.979283 85.288 155.9218
4842.819883 85.090 155.3904
4877.912952 84.887 154.9793
4913.260320 84.680 154.6940
4948.863830 84.473 154.5377
4984.725337 84.269 154.5112
5020.846712 84.072 154.6112
5057.229836 83.884 154.8312
5093.876609 83.709 155.1618
5130.788938 83.551 155.5914
5167.968750 83.412 156.1058
5205.417982 83.294 156.6885
5243.138586 83.200 157.3199
5281.132530 83.132 157.9779
5319.401793 83.090 158.6390
5357.948371 83.074 159.2791
5396.774274 83.085 159.8743
5435.881525 83.119 160.4005
5475.272163 83.176 160.8343
5514.948243 83.253 161.1527
5554.911831 83.346 161.3344
5595.165012 83.450 161.3611
5635.709884 83.562 161.2191
5676.548561 83.675 160.8994
5717.683172 83.785 160.3989
5759.115861 83.885 159.7196
5800.848789 83.972 158.8683
5842.884130 84.039 157.8563
5885.224077 84.082 156.7000
5927.870837 84.096 155.4206
5970.826633 84.077 154.0443
6014.093704 84.021 152.6024
6057.674306 83.925 151.1310
6101.570711 83.786 149.6705
6145.785208 83.603 148.2648
6190.320101 83.375 146.9618
6235.177712 83.102 145.8125
6280.360380 82.785 144.8708
6325.870460 82.427 144.1928
6371.710325 82.031 143.8356
6417.882365 81.602 143.8557
6464.388986 81.146 144.3081
6511.232613 80.672 145.2434
6558.415689 80.188 146.7037
6605.940673 79.706 148.7155
6653.810042 79.237 151.2834
6702.026292 78.794 154.3835
6750.591937 78.390 157.9608
6799.509509 78.036 161.9312
6848.781558 77.742 166.1884
6898.410653 77.513 170.6155
6948.399380 77.355 175.0989
6998.750346 77.268 179.5376
7049.466176 77.249 -176.1502
7100.549514 77.298 -172.0270
7152.003023 77.408 -168.1394
7203.829385 77.574 -164.5218
7256.031302 77.792 -161.2010
7308.611496 78.054 -158.1989
7361.572708 78.356 -155.5351
7414.917698 78.689 -153.2297
7468.649249 79.049 -151.3040
7522.770160 79.425 -149.7794
7577.283253 79.810 -148.6742
7632.191371 80.192 -147.9992
7687.497376 80.563 -147.7529
7743.204151 80.909 -147.9184
7799.314600 81.222 -148.4616
7855.831649 81.490 -149.3312
7912.758244 81.704 -150.4579
7970.097352 81.856 -151.7542
8027.851962 81.941 -153.1124
8086.025087 81.956 -154.4040
8144.619758 81.902 -155.4800
8203.639030 81.785 -156.1751
8263.085980 81.617 -156.3177
8322.963708 81.416 -155.7510
8383.275334 81.208 -154.3666
8444.024002 81.020 -152.1520
8505.212881 80.882 -149.2361
8566.845160 80.816 -145.8992
8628.924051 80.832 -142.5167
8691.452792 80.927 -139.4497
8754.434642 81.086 -136.9439
8817.872884 81.288 -135.0938
8881.770826 81.511 -133.8688
8946.131799 81.738 -133.1641
9010.959157 81.957 -132.8466
9076.256282 82.163 -132.7862
9142.026576 82.356 -132.8731
9208.273470 82.541 -133.0267
9275.000415 82.723 -133.1979
9342.210891 82.910 -133.3676
9409.908403 83.107 -133.5425
9478.096478 83.318 -133.7477
9546.778672 83.544 -134.0188
9615.958566 83.785 -134.3935
9685.639765 84.038 -134.9044
9755.825904 84.300 -135.5756
9826.520640 84.569 -136.4242
9897.727659 84.840 -137.4615
9969.450674 85.111 -138.6941
10041.693423 85.381 -140.1252
10114.459673 85.647 -141.7571
10187.753217 85.907 -143.5923
10261.577877 86.160 -145.6349
10335.937500 86.402 -147.8901
10410.835964 86.632 -150.3638
10486.277173 86.844 -153.0610
10562.265060 87.034 -155.9838
10638.803587 87.198 -159.1298
10715.896743 87.329 -162.4909
10793.548548 87.423 -166.0533
10871.763050 87.475 -169.7973
10950.544327 87.480 -173.6981
11029.896485 87.434 -177.7266
11109.823662 87.335 178.1495
11190.330024 87.181 173.9642
11271.419768 86.970 169.7527
11353.097122 86.702 165.5497
11435.366344 86.379 161.3876
11518.231722 86.001 157.2950
11601.697577 85.571 153.2941
11685.768261 85.093 149.3999
11770.448155 84.571 145.6186
11855.741674 84.010 141.9476
11941.653265 83.413 138.3753
12028.187408 82.785 134.8820
12115.348612 82.131 131.4402
12203.141422 81.454 128.0162
12291.570415 80.758 124.5697
12380.640201 80.046 121.0535
12470.355424 79.321 117.4120
12560.720760 78.587 113.5783
12651.740920 77.848 109.4692
12743.420650 77.108 104.9772
12835.764729 76.373 99.9560
12928.777972 75.651 94.1928
13022.465227 74.948 87.3562
13116.831378 74.278 78.8896
13211.881345 73.653 67.8072
13307.620084 73.090 52.3861
13404.052584 72.607 30.3369
13501.183875 72.219 2.0256
13599.019019 71.937 -25.3386
13697.563116 71.765 -45.8590
13796.821305 71.698 -60.2766
13896.798760 71.722 -70.8746
13997.500692 71.821 -79.1957
14098.932352 71.979 -86.1091
14201.099028 72.178 -92.1064
14304.006046 72.409 -97.4802
14407.658770 72.660 -102.4172
14512.062604 72.928 -107.0464
14617.222992 73.209 -111.4636
14723.145416 73.500 -115.7457
14829.835397 73.800 -119.9576
14937.298497 74.107 -124.1567
15045.540320 74.421 -128.3936
15154.566507 74.739 -132.7136
15264.382743 75.060 -137.1571
15374.994752 75.380 -141.7592
15486.408302 75.698 -146.5498
15598.629201 76.009 -151.5545
15711.663298 76.312 -156.7941
15825.516487 76.602 -162.2860
15940.194703 76.878 -168.0443
16055.703925 77.136 -174.0808
16172.050174 77.373 179.5956
16289.239516 77.584 172.9783
16407.278061 77.768 166.0640
16526.171961 77.920 158.8531
16645.927415 78.040 151.3501
16766.550667 78.125 143.5616
16888.048005 78.176 135.4963
17010.425762 78.195 127.1620
17133.690320 78.185 118.5652
17257.848103 78.149 109.7087
17382.905584 78.091 100.5945
17508.869284 78.014 91.2226
17635.745768 77.923 81.5946
17763.541652 77.821 71.7147
17892.263597 77.717 61.5882
18021.918315 77.618 51.2186
18152.512564 77.537 40.5963
18284.053153 77.489 29.6824
18416.546939 77.488 18.3813
18550.000830 77.546 6.4921
18684.421783 77.667 -6.3740
18819.816805 77.847 -20.9531
18956.192956 78.073 -38.5983
19093.557344 78.326 -61.3992
19231.917131 78.584 -90.3599
19371.279531 78.828 -120.3536
19511.651807 79.040 -143.6305
19653.041280 79.208 -158.8083
19795.455318 79.323 -167.7517
19938.901348 79.382 -171.9091
