* Measurement data measured by REW V5.31.3
* Source: EXCL: Headset (USB-C to 3.5mm Headphone Jack Adapter), MICROPHONE (Master Volume), 0, volume: 0.750
* Format: 256k Log Swept Sine, 1 sweep at -12.0 dBFS with no timing reference
* Dated: Apr 7, 2025 5:05:56 PM
* REW Settings:
*  C-weighting compensation: Off
*  Target level: 75.0 dB
* Note: ; 
* Measurement: Maxwell (Wired) L10
* Smoothing: 1/6 octave
* Frequency Step: 96 ppo
* Start Frequency: 20.0 Hz
*
* Freq(Hz) SPL(dB) Phase(degrees)
20.187378 80.573 -22.8216
20.333664 80.633 -23.2527
20.481010 80.716 -23.8284
20.629424 80.823 -24.5306
20.778913 80.953 -25.3400
20.929486 81.107 -26.2375
21.081150 81.283 -27.2052
21.233912 81.479 -28.2273
21.387782 81.690 -29.2901
21.542767 81.914 -30.3817
21.698874 82.144 -31.4915
21.856113 82.377 -32.6104
22.014492 82.608 -33.7302
22.174018 82.833 -34.8440
22.334700 83.049 -35.9464
22.496546 83.255 -37.0341
22.659566 83.448 -38.1062
22.823766 83.628 -39.1647
22.989157 83.795 -40.2143
23.155745 83.951 -41.2627
23.323542 84.095 -42.3195
23.492554 84.230 -43.3955
23.662790 84.355 -44.5010
23.834261 84.472 -45.6446
24.006973 84.580 -46.8319
24.180938 84.681 -48.0638
24.356163 84.773 -49.3367
24.532658 84.859 -50.6422
24.710431 84.937 -51.9683
24.889493 85.009 -53.3005
25.069853 85.075 -54.6240
25.251519 85.136 -55.9254
25.434502 85.195 -57.1947
25.618811 85.251 -58.4267
25.804456 85.307 -59.6215
25.991445 85.362 -60.7844
26.179790 85.418 -61.9250
26.369500 85.472 -63.0553
26.560584 85.524 -64.1882
26.753053 85.572 -65.3354
26.946917 85.615 -66.5055
27.142185 85.652 -67.7039
27.338869 85.680 -68.9317
27.536977 85.700 -70.1864
27.736522 85.713 -71.4631
27.937512 85.718 -72.7552
28.139959 85.719 -74.0560
28.343872 85.715 -75.3594
28.549264 85.711 -76.6609
28.756143 85.707 -77.9580
28.964522 85.704 -79.2496
29.174411 85.705 -80.5361
29.385821 85.708 -81.8184
29.598763 85.715 -83.0975
29.813248 85.724 -84.3736
30.029287 85.736 -85.6462
30.246891 85.748 -86.9139
30.466073 85.762 -88.1741
30.686842 85.776 -89.4237
30.909212 85.791 -90.6585
31.133193 85.806 -91.8739
31.358797 85.822 -93.0648
31.586035 85.838 -94.2254
31.814921 85.856 -95.3502
32.045465 85.875 -96.4337
32.277680 85.897 -97.4716
32.511577 85.921 -98.4608
32.747169 85.949 -99.4006
32.984469 85.980 -100.2926
33.223488 86.016 -101.1409
33.464239 86.057 -101.9513
33.706735 86.101 -102.7310
33.950987 86.149 -103.4876
34.197010 86.201 -104.2282
34.444816 86.255 -104.9584
34.694417 86.312 -105.6823
34.945827 86.370 -106.4022
35.199059 86.428 -107.1188
35.454126 86.487 -107.8314
35.711041 86.546 -108.5390
35.969818 86.604 -109.2403
36.230470 86.663 -109.9345
36.493011 86.721 -110.6214
36.757455 86.778 -111.3017
37.023814 86.835 -111.9764
37.292104 86.892 -112.6466
37.562338 86.947 -113.3125
37.834530 87.002 -113.9729
38.108695 87.056 -114.6253
38.384846 87.109 -115.2661
38.662999 87.162 -115.8912
38.943167 87.216 -116.4980
39.225365 87.272 -117.0858
39.509608 87.330 -117.6573
39.795911 87.391 -118.2180
40.084289 87.454 -118.7756
40.374756 87.521 -119.3387
40.667328 87.589 -119.9154
40.962020 87.658 -120.5122
41.258848 87.729 -121.1340
41.557827 87.801 -121.7844
41.858972 87.875 -122.4667
42.162299 87.950 -123.1843
42.467824 88.028 -123.9406
42.775564 88.108 -124.7389
43.085533 88.190 -125.5817
43.397749 88.273 -126.4697
43.712227 88.356 -127.4027
44.028983 88.436 -128.3793
44.348036 88.514 -129.3980
44.669400 88.588 -130.4578
44.993093 88.656 -131.5581
45.319131 88.719 -132.6990
45.647532 88.774 -133.8797
45.978313 88.821 -135.0984
46.311491 88.860 -136.3517
46.647083 88.890 -137.6344
46.985107 88.910 -138.9402
47.325581 88.921 -140.2627
47.668521 88.923 -141.5958
48.013947 88.916 -142.9344
48.361876 88.901 -144.2743
48.712326 88.877 -145.6122
49.065315 88.845 -146.9446
49.420863 88.806 -148.2677
49.778987 88.758 -149.5768
50.139706 88.703 -150.8668
50.503039 88.642 -152.1320
50.869005 88.573 -153.3673
51.237623 88.498 -154.5687
51.608912 88.418 -155.7332
51.982891 88.331 -156.8591
52.359580 88.239 -157.9453
52.739000 88.142 -158.9908
53.121168 88.039 -159.9942
53.506106 87.931 -160.9535
53.893833 87.820 -161.8663
54.284370 87.706 -162.7301
54.677737 87.590 -163.5426
55.073955 87.473 -164.3029
55.473043 87.357 -165.0109
55.875024 87.241 -165.6682
56.279917 87.127 -166.2773
56.687745 87.013 -166.8416
57.098527 86.901 -167.3646
57.512287 86.789 -167.8499
57.929045 86.677 -168.3009
58.348822 86.567 -168.7216
58.771642 86.459 -169.1164
59.197525 86.353 -169.4913
59.626495 86.252 -169.8530
60.058573 86.157 -170.2083
60.493782 86.067 -170.5618
60.932145 85.984 -170.9152
61.373685 85.906 -171.2667
61.818424 85.833 -171.6119
62.266386 85.765 -171.9456
62.717593 85.701 -172.2634
63.172071 85.641 -172.5627
63.629842 85.584 -172.8425
64.090930 85.530 -173.1029
64.555359 85.480 -173.3445
65.023154 85.434 -173.5680
65.494339 85.392 -173.7742
65.968938 85.355 -173.9638
66.446976 85.321 -174.1381
66.928478 85.291 -174.2988
67.413469 85.265 -174.4486
67.901975 85.241 -174.5900
68.394021 85.219 -174.7254
68.889632 85.199 -174.8562
69.388835 85.179 -174.9835
69.891655 85.161 -175.1080
70.398118 85.143 -175.2307
70.908252 85.125 -175.3527
71.422083 85.108 -175.4758
71.939636 85.091 -175.6018
72.460941 85.074 -175.7324
72.986023 85.057 -175.8692
73.514909 85.039 -176.0134
74.047629 85.021 -176.1660
74.584208 85.002 -176.3286
75.124676 84.983 -176.5027
75.669061 84.962 -176.6903
76.217390 84.941 -176.8931
76.769692 84.919 -177.1119
77.325997 84.897 -177.3465
77.886333 84.873 -177.5959
78.450730 84.849 -177.8578
79.019216 84.824 -178.1302
79.591822 84.798 -178.4109
80.168577 84.772 -178.6981
80.749512 84.745 -178.9900
81.334656 84.717 -179.2852
81.924040 84.688 -179.5818
82.517696 84.658 -179.8781
83.115653 84.626 179.8279
83.717943 84.592 179.5374
84.324598 84.556 179.2512
84.935649 84.518 178.9693
85.551128 84.478 178.6913
86.171066 84.437 178.4162
86.795497 84.393 178.1429
87.424453 84.348 177.8705
88.057967 84.302 177.5978
88.696071 84.255 177.3243
89.338800 84.207 177.0499
89.986185 84.158 176.7750
90.638262 84.109 176.5006
91.295065 84.060 176.2280
91.956626 84.011 175.9589
92.622982 83.961 175.6952
93.294166 83.911 175.4386
93.970214 83.861 175.1907
94.651161 83.809 174.9527
95.337042 83.756 174.7252
96.027894 83.703 174.5082
96.723752 83.648 174.3018
97.424652 83.593 174.1055
98.130631 83.537 173.9194
98.841726 83.482 173.7432
99.557974 83.427 173.5772
100.279412 83.374 173.4215
101.006078 83.322 173.2764
101.738010 83.272 173.1418
102.475245 83.224 173.0172
103.217823 83.177 172.9018
103.965782 83.134 172.7945
104.719161 83.092 172.6937
105.477999 83.052 172.5984
106.242336 83.014 172.5076
107.012212 82.978 172.4210
107.787666 82.944 172.3385
108.568740 82.912 172.2600
109.355474 82.882 172.1856
110.147909 82.853 172.1155
110.946086 82.826 172.0500
111.750047 82.800 171.9896
112.559834 82.777 171.9349
113.375489 82.756 171.8860
114.197055 82.739 171.8424
115.024574 82.724 171.8029
115.858089 82.711 171.7649
116.697645 82.702 171.7253
117.543284 82.695 171.6810
118.395051 82.690 171.6291
119.252990 82.686 171.5674
120.117147 82.683 171.4945
120.987565 82.680 171.4100
121.864291 82.677 171.3143
122.747370 82.673 171.2083
123.636848 82.669 171.0922
124.532771 82.665 170.9660
125.435187 82.659 170.8288
126.344142 82.653 170.6794
127.259684 82.645 170.5168
128.181860 82.637 170.3409
129.110718 82.626 170.1519
130.046308 82.614 169.9507
130.988677 82.600 169.7388
131.937875 82.584 169.5179
132.893951 82.566 169.2898
133.856956 82.545 169.0564
134.826938 82.520 168.8193
135.803950 82.492 168.5807
136.788041 82.461 168.3419
137.779264 82.425 168.1043
138.777669 82.385 167.8687
139.783309 82.341 167.6356
140.796237 82.293 167.4057
141.816504 82.242 167.1796
142.844165 82.186 166.9585
143.879273 82.126 166.7437
144.921881 82.063 166.5367
145.972045 81.996 166.3390
147.029819 81.926 166.1523
148.095257 81.853 165.9784
149.168417 81.777 165.8193
150.249353 81.700 165.6781
151.338121 81.620 165.5579
152.434780 81.538 165.4618
153.539385 81.455 165.3921
154.651995 81.371 165.3505
155.772667 81.286 165.3375
156.901460 81.200 165.3536
158.038432 81.113 165.3991
159.183644 81.026 165.4741
160.337154 80.940 165.5791
161.499023 80.854 165.7143
162.669312 80.769 165.8801
163.848081 80.686 166.0764
165.035392 80.604 166.3031
166.231306 80.525 166.5597
167.435887 80.448 166.8454
168.649196 80.374 167.1590
169.871298 80.305 167.4990
171.102255 80.240 167.8636
172.342133 80.180 168.2508
173.590995 80.125 168.6577
174.848907 80.075 169.0812
176.115934 80.031 169.5178
177.392143 79.991 169.9637
178.677599 79.956 170.4149
179.972371 79.925 170.8677
181.276525 79.898 171.3185
182.590129 79.875 171.7641
183.913252 79.856 172.2016
185.245964 79.840 172.6288
186.588332 79.827 173.0438
187.940428 79.816 173.4440
189.302322 79.809 173.8268
190.674085 79.803 174.1888
192.055788 79.800 174.5271
193.447503 79.799 174.8391
194.849303 79.799 175.1237
196.261262 79.801 175.3808
197.683452 79.805 175.6114
199.115948 79.811 175.8176
200.558824 79.818 176.0020
202.012156 79.827 176.1682
203.476019 79.838 176.3196
204.950490 79.849 176.4593
206.435646 79.861 176.5893
207.931564 79.872 176.7108
209.438322 79.882 176.8242
210.955998 79.891 176.9298
212.484672 79.899 177.0284
214.024424 79.906 177.1212
215.575333 79.913 177.2094
217.137481 79.919 177.2943
218.710948 79.925 177.3770
220.295818 79.932 177.4581
221.892172 79.938 177.5381
223.500094 79.945 177.6181
225.119668 79.953 177.6997
226.750978 79.961 177.7852
228.394109 79.970 177.8766
230.049147 79.980 177.9753
231.716178 79.991 178.0816
233.395289 80.003 178.1953
235.086567 80.016 178.3154
236.790102 80.029 178.4408
238.505980 80.043 178.5701
240.234293 80.058 178.7019
241.975130 80.074 178.8346
243.728581 80.091 178.9667
245.494739 80.109 179.0970
247.273695 80.129 179.2239
249.065542 80.151 179.3462
250.870374 80.174 179.4622
252.688284 80.200 179.5707
254.519367 80.228 179.6704
256.363720 80.258 179.7607
258.221437 80.290 179.8411
260.092616 80.323 179.9107
261.977354 80.358 179.9690
263.875750 80.394 -179.9851
265.787903 80.432 -179.9525
267.713911 80.470 -179.9341
269.653877 80.509 -179.9304
271.607900 80.548 -179.9416
273.576083 80.588 -179.9681
275.558528 80.628 179.9901
277.555338 80.668 179.9325
279.566619 80.707 179.8588
281.592474 80.744 179.7689
283.633009 80.779 179.6627
285.688331 80.813 179.5407
287.758546 80.843 179.4037
289.843763 80.871 179.2528
291.944090 80.895 179.0903
294.059638 80.916 178.9190
296.190515 80.934 178.7427
298.336833 80.947 178.5655
300.498705 80.958 178.3921
302.676243 80.965 178.2270
304.869559 80.969 178.0746
307.078770 80.970 177.9386
309.303989 80.968 177.8224
311.545334 80.965 177.7284
313.802919 80.960 177.6584
316.076865 80.953 177.6136
318.367288 80.945 177.5946
320.674309 80.937 177.6014
322.998047 80.929 177.6338
325.338624 80.921 177.6907
327.696162 80.914 177.7706
330.070783 80.907 177.8718
332.462612 80.901 177.9922
334.871773 80.896 178.1297
337.298392 80.893 178.2820
339.742595 80.890 178.4468
342.204510 80.889 178.6218
344.684265 80.888 178.8047
347.181989 80.889 178.9943
349.697813 80.890 179.1894
352.231868 80.893 179.3895
354.784285 80.896 179.5941
357.355198 80.900 179.8029
359.944741 80.906 -179.9844
362.553049 80.913 -179.7684
365.180258 80.920 -179.5496
367.826505 80.930 -179.3289
370.491927 80.941 -179.1073
373.176665 80.954 -178.8857
375.880856 80.968 -178.6652
378.604644 80.985 -178.4469
381.348169 81.004 -178.2319
384.111575 81.025 -178.0214
386.895006 81.049 -177.8167
389.698607 81.075 -177.6193
392.522524 81.103 -177.4304
395.366904 81.133 -177.2510
398.231895 81.165 -177.0820
401.117648 81.200 -176.9245
404.024312 81.236 -176.7797
406.952038 81.275 -176.6488
409.900981 81.315 -176.5339
412.871292 81.356 -176.4371
415.863128 81.399 -176.3607
418.876643 81.442 -176.3069
421.911996 81.486 -176.2776
424.969344 81.530 -176.2743
428.048847 81.573 -176.2978
431.150666 81.615 -176.3485
434.274961 81.656 -176.4263
437.421897 81.695 -176.5308
440.591636 81.733 -176.6614
443.784345 81.768 -176.8174
447.000189 81.801 -176.9984
450.239337 81.832 -177.2040
453.501956 81.859 -177.4336
456.788219 81.884 -177.6865
460.098294 81.906 -177.9618
463.432356 81.924 -178.2582
466.790578 81.940 -178.5742
470.173135 81.951 -178.9077
473.580203 81.960 -179.2565
477.011961 81.964 -179.6179
480.468586 81.965 -179.9887
483.950259 81.961 179.6345
487.457163 81.954 179.2553
490.989478 81.944 178.8777
494.547390 81.929 178.5057
498.131084 81.912 178.1430
501.740748 81.891 177.7933
505.376568 81.868 177.4597
509.038735 81.843 177.1447
512.727439 81.818 176.8497
516.442874 81.791 176.5755
520.185232 81.765 176.3218
523.954708 81.740 176.0874
527.751500 81.717 175.8707
531.575805 81.697 175.6694
535.427822 81.679 175.4810
539.307753 81.664 175.3030
543.215800 81.653 175.1329
547.152165 81.645 174.9687
551.117055 81.641 174.8082
555.110677 81.641 174.6495
559.133237 81.643 174.4904
563.184947 81.649 174.3289
567.266018 81.657 174.1628
571.376661 81.667 173.9901
575.517092 81.678 173.8089
579.687526 81.690 173.6180
583.888181 81.703 173.4162
588.119275 81.715 173.2029
592.381030 81.727 172.9778
596.673667 81.738 172.7407
600.997410 81.748 172.4911
605.352485 81.755 172.2288
609.739119 81.760 171.9532
614.157540 81.762 171.6638
618.607979 81.761 171.3604
623.090667 81.756 171.0428
627.605839 81.747 170.7113
632.153730 81.733 170.3665
636.734576 81.715 170.0095
641.348617 81.691 169.6416
645.996094 81.661 169.2646
650.677248 81.625 168.8807
655.392323 81.583 168.4925
660.141566 81.534 168.1028
664.925224 81.479 167.7148
669.743546 81.415 167.3323
674.596784 81.345 166.9595
679.485191 81.266 166.6013
684.409020 81.179 166.2631
689.368530 81.084 165.9510
694.363979 80.981 165.6720
699.395626 80.870 165.4337
704.463736 80.750 165.2444
709.568570 80.623 165.1128
714.710396 80.490 165.0479
719.889483 80.349 165.0586
725.106099 80.204 165.1532
730.360516 80.056 165.3384
735.653010 79.906 165.6187
740.983855 79.757 165.9954
746.353329 79.611 166.4666
751.761713 79.469 167.0266
757.209288 79.334 167.6661
762.696339 79.208 168.3733
768.223151 79.092 169.1344
773.790013 78.987 169.9349
779.397214 78.894 170.7607
785.045047 78.812 171.5988
790.733808 78.741 172.4380
796.463791 78.681 173.2693
802.235296 78.632 174.0856
808.048623 78.592 174.8820
813.904077 78.561 175.6548
819.801961 78.539 176.4016
825.742584 78.525 177.1204
831.726255 78.518 177.8097
837.753287 78.519 178.4680
843.823992 78.526 179.0936
849.938689 78.539 179.6843
856.097695 78.557 -179.7617
862.301332 78.581 -179.2463
868.549922 78.608 -178.7707
874.843793 78.638 -178.3354
881.183272 78.671 -177.9399
887.568689 78.706 -177.5829
894.000378 78.742 -177.2622
900.478673 78.778 -176.9750
907.003913 78.814 -176.7178
913.576437 78.850 -176.4868
920.196588 78.886 -176.2776
926.864712 78.921 -176.0854
933.581156 78.955 -175.9047
940.346270 78.989 -175.7299
947.160407 79.024 -175.5553
954.023921 79.060 -175.3756
960.937172 79.098 -175.1871
967.900519 79.139 -174.9885
974.914325 79.186 -174.7816
981.978956 79.238 -174.5717
989.094780 79.297 -174.3670
996.262169 79.363 -174.1778
1003.481495 79.436 -174.0151
1010.753136 79.516 -173.8894
1018.077470 79.600 -173.8096
1025.454879 79.687 -173.7822
1032.885748 79.777 -173.8110
1040.370463 79.866 -173.8972
1047.909417 79.954 -174.0394
1055.503000 80.038 -174.2337
1063.151610 80.117 -174.4743
1070.855645 80.190 -174.7539
1078.615506 80.256 -175.0641
1086.431599 80.314 -175.3958
1094.304330 80.363 -175.7394
1102.234110 80.403 -176.0853
1110.221353 80.434 -176.4244
1118.266475 80.456 -176.7477
1126.369895 80.470 -177.0467
1134.532035 80.477 -177.3134
1142.753322 80.475 -177.5395
1151.034184 80.467 -177.7167
1159.375052 80.453 -177.8362
1167.776361 80.434 -177.8885
1176.238550 80.412 -177.8638
1184.762060 80.388 -177.7528
1193.347334 80.364 -177.5473
1201.994821 80.345 -177.2428
1210.704971 80.334 -176.8393
1219.478238 80.333 -176.3440
1228.315080 80.345 -175.7713
1237.215957 80.375 -175.1425
1246.181334 80.423 -174.4839
1255.211678 80.488 -173.8239
1264.307459 80.572 -173.1901
1273.469152 80.671 -172.6071
1282.697235 80.784 -172.0945
1291.992188 80.908 -171.6665
1301.354495 81.040 -171.3323
1310.784647 81.176 -171.0961
1320.283132 81.315 -170.9585
1329.850448 81.454 -170.9170
1339.487093 81.590 -170.9669
1349.193569 81.723 -171.1019
1358.970381 81.850 -171.3144
1368.818041 81.971 -171.5961
1378.737061 82.083 -171.9376
1388.727958 82.187 -172.3286
1398.791253 82.281 -172.7574
1408.927471 82.365 -173.2113
1419.137140 82.439 -173.6761
1429.420793 82.504 -174.1371
1439.778965 82.560 -174.5799
1450.212197 82.611 -174.9920
1460.721033 82.656 -175.3649
1471.306019 82.700 -175.6951
1481.967709 82.743 -175.9852
1492.706658 82.787 -176.2423
1503.523426 82.834 -176.4770
1514.418576 82.883 -176.7008
1525.392678 82.933 -176.9244
1536.446302 82.982 -177.1565
1547.580025 83.030 -177.4025
1558.794428 83.074 -177.6643
1570.090095 83.112 -177.9402
1581.467615 83.143 -178.2252
1592.927581 83.166 -178.5117
1604.470591 83.180 -178.7906
1616.097246 83.185 -179.0521
1627.808153 83.180 -179.2857
1639.603922 83.167 -179.4816
1651.485168 83.147 -179.6301
1663.452510 83.120 -179.7236
1675.506573 83.090 -179.7568
1687.647984 83.058 -179.7285
1699.877377 83.027 -179.6428
1712.195390 82.999 -179.5096
1724.602663 82.977 -179.3434
1737.099845 82.960 -179.1616
1749.687587 82.950 -178.9823
1762.366544 82.946 -178.8222
1775.137379 82.946 -178.6952
1788.000756 82.949 -178.6115
1800.957346 82.952 -178.5768
1814.007826 82.954 -178.5923
1827.152874 82.951 -178.6551
1840.393177 82.942 -178.7579
1853.729425 82.926 -178.8906
1867.162312 82.900 -179.0404
1880.692540 82.864 -179.1937
1894.320813 82.817 -179.3365
1908.047843 82.761 -179.4560
1921.874344 82.696 -179.5414
1935.801038 82.623 -179.5844
1949.828650 82.544 -179.5804
1963.957912 82.461 -179.5279
1978.189561 82.374 -179.4291
1992.524338 82.287 -179.2885
2006.962991 82.198 -179.1121
2021.506272 82.109 -178.9055
2036.154940 82.021 -178.6732
2050.909758 81.934 -178.4184
2065.771495 81.847 -178.1435
2080.740927 81.762 -177.8504
2095.818833 81.678 -177.5419
2111.006001 81.597 -177.2214
2126.303220 81.519 -176.8930
2141.711290 81.443 -176.5612
2157.231013 81.371 -176.2296
2172.863198 81.301 -175.9015
2188.608660 81.235 -175.5795
2204.468221 81.171 -175.2662
2220.442706 81.111 -174.9642
2236.532950 81.053 -174.6768
2252.739789 80.997 -174.4074
2269.064070 80.943 -174.1591
2285.506644 80.891 -173.9343
2302.068367 80.838 -173.7334
2318.750104 80.784 -173.5551
2335.552723 80.728 -173.3954
2352.477101 80.668 -173.2472
2369.524119 80.604 -173.1006
2386.694668 80.534 -172.9423
2403.989641 80.458 -172.7567
2421.409941 80.377 -172.5261
2438.956476 80.291 -172.2321
2456.630160 80.201 -171.8562
2474.431915 80.111 -171.3806
2492.362668 80.022 -170.7891
2510.423356 79.939 -170.0684
2528.614918 79.865 -169.2101
2546.938304 79.805 -168.2133
2565.394469 79.766 -167.0884
2583.984375 79.751 -165.8580
2602.708991 79.764 -164.5573
2621.569293 79.808 -163.2297
2640.566265 79.882 -161.9211
2659.700897 79.985 -160.6732
2678.974186 80.113 -159.5194
2698.387137 80.262 -158.4819
2717.940763 80.427 -157.5727
2737.636082 80.604 -156.7958
2757.474121 80.790 -156.1497
2777.455915 80.981 -155.6296
2797.582506 81.175 -155.2293
2817.854942 81.368 -154.9414
2838.274281 81.559 -154.7579
2858.841586 81.746 -154.6696
2879.557931 81.927 -154.6663
2900.424394 82.100 -154.7359
2921.442065 82.264 -154.8650
2942.612039 82.417 -155.0389
2963.935418 82.561 -155.2429
2985.413316 82.696 -155.4631
3007.046852 82.821 -155.6877
3028.837153 82.939 -155.9085
3050.785356 83.051 -156.1222
3072.892604 83.158 -156.3303
3095.160050 83.260 -156.5385
3117.588856 83.359 -156.7552
3140.180190 83.455 -156.9895
3162.935230 83.546 -157.2509
3185.855163 83.633 -157.5479
3208.941182 83.713 -157.8888
3232.194493 83.788 -158.2817
3255.616307 83.853 -158.7339
3279.207844 83.909 -159.2515
3302.970336 83.951 -159.8374
3326.905021 83.977 -160.4896
3351.013146 83.983 -161.1985
3375.295969 83.966 -161.9451
3399.754755 83.920 -162.6997
3424.390779 83.845 -163.4214
3449.205326 83.737 -164.0585
3474.199690 83.597 -164.5507
3499.375173 83.427 -164.8332
3524.733088 83.233 -164.8438
3550.274757 83.024 -164.5329
3576.001511 82.810 -163.8757
3601.914692 82.607 -162.8810
3628.015651 82.428 -161.5946
3654.305748 82.284 -160.0907
3680.786354 82.185 -158.4567
3707.458849 82.135 -156.7766
3734.324624 82.135 -155.1203
3761.385080 82.185 -153.5427
3788.641627 82.282 -152.0873
3816.095686 82.421 -150.7911
3843.748688 82.598 -149.6848
3871.602076 82.807 -148.7899
3899.657300 83.040 -148.1170
3927.915825 83.291 -147.6673
3956.379122 83.555 -147.4363
3985.048676 83.827 -147.4189
4013.925981 84.101 -147.6098
4043.012544 84.372 -148.0033
4072.309879 84.636 -148.5905
4101.819515 84.887 -149.3575
4131.542990 85.123 -150.2854
4161.481854 85.339 -151.3513
4191.637667 85.534 -152.5310
4222.012001 85.708 -153.8011
4252.606441 85.860 -155.1411
4283.422580 85.989 -156.5338
4314.462026 86.097 -157.9649
4345.726396 86.182 -159.4214
4377.217321 86.245 -160.8906
4408.936442 86.286 -162.3589
4440.885413 86.305 -163.8129
4473.065899 86.304 -165.2400
4505.479579 86.282 -166.6302
4538.128141 86.242 -167.9762
4571.013288 86.185 -169.2732
4604.136735 86.112 -170.5173
4637.500207 86.024 -171.7048
4671.105446 85.921 -172.8308
4704.954201 85.804 -173.8892
4739.048239 85.675 -174.8735
4773.389336 85.533 -175.7768
4807.979283 85.382 -176.5926
4842.819883 85.222 -177.3144
4877.912952 85.056 -177.9364
4913.260320 84.885 -178.4542
4948.863830 84.713 -178.8657
4984.725337 84.543 -179.1719
5020.846712 84.377 -179.3767
5057.229836 84.218 -179.4868
5093.876609 84.069 -179.5102
5130.788938 83.932 -179.4566
5167.968750 83.810 -179.3367
5205.417982 83.703 -179.1629
5243.138586 83.613 -178.9492
5281.132530 83.542 -178.7106
5319.401793 83.491 -178.4631
5357.948371 83.458 -178.2227
5396.774274 83.444 -178.0055
5435.881525 83.449 -177.8280
5475.272163 83.471 -177.7074
5514.948243 83.509 -177.6612
5554.911831 83.560 -177.7073
5595.165012 83.622 -177.8620
5635.709884 83.690 -178.1393
5676.548561 83.762 -178.5493
5717.683172 83.832 -179.0979
5759.115861 83.896 -179.7870
5800.848789 83.949 179.3859
5842.884130 83.987 178.4275
5885.224077 84.006 177.3491
5927.870837 84.001 176.1668
5970.826633 83.968 174.9014
6014.093704 83.903 173.5790
6057.674306 83.803 172.2307
6101.570711 83.666 170.8925
6145.785208 83.488 169.6058
6190.320101 83.268 168.4167
6235.177712 83.007 167.3765
6280.360380 82.705 166.5403
6325.870460 82.364 165.9665
6371.710325 81.987 165.7144
6417.882365 81.581 165.8420
6464.388986 81.152 166.4029
6511.232613 80.710 167.4417
6558.415689 80.263 168.9877
6605.940673 79.825 171.0493
6653.810042 79.408 173.6085
6702.026292 79.023 176.6199
6750.591937 78.682 -179.9879
6799.509509 78.393 -176.3053
6848.781558 78.165 -172.4322
6898.410653 78.000 -168.4666
6948.399380 77.901 -164.4960
6998.750346 77.867 -160.5930
7049.466176 77.896 -156.8154
7100.549514 77.984 -153.2082
7152.003023 78.129 -149.8072
7203.829385 78.326 -146.6416
7256.031302 78.569 -143.7356
7308.611496 78.856 -141.1108
7361.572708 79.179 -138.7883
7414.917698 79.535 -136.7903
7468.649249 79.917 -135.1405
7522.770160 80.318 -133.8627
7577.283253 80.730 -132.9780
7632.191371 81.144 -132.5005
7687.497376 81.550 -132.4341
7743.204151 81.939 -132.7704
7799.314600 82.301 -133.4878
7855.831649 82.626 -134.5519
7912.758244 82.906 -135.9150
7970.097352 83.132 -137.5159
8027.851962 83.298 -139.2785
8086.025087 83.398 -141.1110
8144.619758 83.430 -142.9055
8203.639030 83.393 -144.5393
8263.085980 83.293 -145.8810
8322.963708 83.139 -146.8002
8383.275334 82.948 -147.1857
8444.024002 82.740 -146.9699
8505.212881 82.541 -146.1562
8566.845160 82.376 -144.8397
8628.924051 82.265 -143.2037
8691.452792 82.219 -141.4830
8754.434642 82.240 -139.9050
8817.872884 82.317 -138.6375
8881.770826 82.434 -137.7646
8946.131799 82.575 -137.2921
9010.959157 82.723 -137.1715
9076.256282 82.868 -137.3257
9142.026576 83.006 -137.6708
9208.273470 83.134 -138.1302
9275.000415 83.256 -138.6427
9342.210891 83.376 -139.1656
9409.908403 83.501 -139.6759
9478.096478 83.638 -140.1708
9546.778672 83.793 -140.6657
9615.958566 83.971 -141.1920
9685.639765 84.174 -141.7921
9755.825904 84.403 -142.5142
9826.520640 84.653 -143.4059
9897.727659 84.920 -144.5078
9969.450674 85.199 -145.8494
10041.693423 85.484 -147.4490
10114.459673 85.767 -149.3149
10187.753217 86.045 -151.4487
10261.577877 86.313 -153.8480
10335.937500 86.565 -156.5080
10410.835964 86.797 -159.4227
10486.277173 87.005 -162.5840
10562.265060 87.184 -165.9810
10638.803587 87.329 -169.5992
10715.896743 87.437 -173.4208
10793.548548 87.504 -177.4246
10871.763050 87.525 178.4136
10950.544327 87.499 174.1210
11029.896485 87.422 169.7263
11109.823662 87.293 165.2603
11190.330024 87.112 160.7535
11271.419768 86.876 156.2371
11353.097122 86.588 151.7407
11435.366344 86.248 147.2909
11518.231722 85.859 142.9106
11601.697577 85.424 138.6168
11685.768261 84.945 134.4201
11770.448155 84.427 130.3240
11855.741674 83.874 126.3242
11941.653265 83.291 122.4088
12028.187408 82.682 118.5589
12115.348612 82.051 114.7492
12203.141422 81.402 110.9490
12291.570415 80.737 107.1224
12380.640201 80.061 103.2282
12470.355424 79.377 99.2186
12560.720760 78.688 95.0372
12651.740920 77.997 90.6154
12743.420650 77.309 85.8685
12835.764729 76.629 80.6887
12928.777972 75.963 74.9344
13022.465227 75.317 68.4139
13116.831378 74.699 60.8555
13211.881345 74.118 51.8613
13307.620084 73.586 40.8485
13404.052584 73.112 27.0319
13501.183875 72.709 9.6610
13599.019019 72.383 -11.0911
13697.563116 72.142 -33.0461
13796.821305 71.987 -53.0668
13896.798760 71.917 -69.5835
13997.500692 71.925 -82.8221
14098.932352 72.006 -93.5975
14201.099028 72.154 -102.6442
14304.006046 72.360 -110.4905
14407.658770 72.620 -117.4996
14512.062604 72.927 -123.9259
14617.222992 73.273 -129.9558
14723.145416 73.652 -135.7325
14829.835397 74.058 -141.3701
14937.298497 74.481 -146.9620
15045.540320 74.915 -152.5843
15154.566507 75.352 -158.2993
15264.382743 75.787 -164.1565
15374.994752 76.213 -170.1945
15486.408302 76.626 -176.4426
15598.629201 77.023 177.0776
15711.663298 77.401 170.3499
15825.516487 77.757 163.3625
15940.194703 78.091 156.1064
16055.703925 78.401 148.5737
16172.050174 78.685 140.7580
16289.239516 78.942 132.6533
16407.278061 79.170 124.2548
16526.171961 79.367 115.5590
16645.927415 79.531 106.5649
16766.550667 79.661 97.2733
16888.048005 79.755 87.6873
17010.425762 79.813 77.8123
17133.690320 79.836 67.6542
17257.848103 79.824 57.2201
17382.905584 79.782 46.5179
17508.869284 79.713 35.5563
17635.745768 79.623 24.3463
17763.541652 79.519 12.9024
17892.263597 79.413 1.2412
18021.918315 79.317 -10.6205
18152.512564 79.245 -22.6714
18284.053153 79.210 -34.9141
18416.546939 79.220 -47.3782
18550.000830 79.277 -60.1506
18684.421783 79.378 -73.4372
18819.816805 79.511 -87.7182
18956.192956 79.665 -104.1605
19093.557344 79.823 -125.7875
19231.917131 79.975 -159.7131
19371.279531 80.110 153.2900
19511.651807 80.220 118.6550
19653.041280 80.304 100.3295
19795.455318 80.359 90.7379
19938.901348 80.387 86.4851
