* Measurement data measured by REW V5.31.3
* Source: EXCL: Headset (USB-C to 3.5mm Headphone Jack Adapter), MICROPHONE (Master Volume), 0, volume: 0.750
* Format: 256k Log Swept Sine, 1 sweep at -12.0 dBFS with no timing reference
* Dated: Apr 7, 2025 5:01:08 PM
* REW Settings:
*  C-weighting compensation: Off
*  Target level: 75.0 dB
* Note: ; 
* Measurement: Maxwell (Wired) R6
* Smoothing: 1/6 octave
* Frequency Step: 96 ppo
* Start Frequency: 20.0 Hz
*
* Freq(Hz) SPL(dB) Phase(degrees)
20.187378 80.281 -18.9561
20.333664 80.349 -19.2058
20.481010 80.438 -19.5390
20.629424 80.543 -19.9467
20.778913 80.659 -20.4198
20.929486 80.781 -20.9502
21.081150 80.906 -21.5310
21.233912 81.031 -22.1566
21.387782 81.153 -22.8221
21.542767 81.272 -23.5233
21.698874 81.387 -24.2569
21.856113 81.500 -25.0200
22.014492 81.611 -25.8112
22.174018 81.720 -26.6301
22.334700 81.830 -27.4782
22.496546 81.941 -28.3591
22.659566 82.054 -29.2779
22.823766 82.169 -30.2414
22.989157 82.285 -31.2565
23.155745 82.402 -32.3300
23.323542 82.518 -33.4666
23.492554 82.632 -34.6681
23.662790 82.741 -35.9330
23.834261 82.844 -37.2553
24.006973 82.942 -38.6255
24.180938 83.032 -40.0309
24.356163 83.116 -41.4569
24.532658 83.196 -42.8887
24.710431 83.273 -44.3128
24.889493 83.350 -45.7192
25.069853 83.430 -47.1021
25.251519 83.514 -48.4611
25.434502 83.605 -49.8008
25.618811 83.701 -51.1301
25.804456 83.804 -52.4605
25.991445 83.910 -53.8039
26.179790 84.017 -55.1704
26.369500 84.120 -56.5668
26.560584 84.217 -57.9953
26.753053 84.303 -59.4530
26.946917 84.377 -60.9328
27.142185 84.435 -62.4237
27.338869 84.479 -63.9129
27.536977 84.508 -65.3873
27.736522 84.524 -66.8352
27.937512 84.531 -68.2477
28.139959 84.532 -69.6199
28.343872 84.529 -70.9514
28.549264 84.528 -72.2466
28.756143 84.529 -73.5135
28.964522 84.536 -74.7626
29.174411 84.549 -76.0057
29.385821 84.568 -77.2536
29.598763 84.592 -78.5147
29.813248 84.619 -79.7944
30.029287 84.646 -81.0940
30.246891 84.673 -82.4105
30.466073 84.697 -83.7377
30.686842 84.716 -85.0665
30.909212 84.731 -86.3862
31.133193 84.741 -87.6858
31.358797 84.746 -88.9550
31.586035 84.749 -90.1857
31.814921 84.749 -91.3726
32.045465 84.750 -92.5137
32.277680 84.752 -93.6100
32.511577 84.757 -94.6650
32.747169 84.764 -95.6838
32.984469 84.775 -96.6716
33.223488 84.790 -97.6331
33.464239 84.808 -98.5715
33.706735 84.830 -99.4885
33.950987 84.855 -100.3844
34.197010 84.883 -101.2590
34.444816 84.915 -102.1116
34.694417 84.950 -102.9419
34.945827 84.988 -103.7501
35.199059 85.028 -104.5363
35.454126 85.070 -105.3009
35.711041 85.113 -106.0446
35.969818 85.156 -106.7684
36.230470 85.200 -107.4748
36.493011 85.243 -108.1674
36.757455 85.286 -108.8514
37.023814 85.329 -109.5331
37.292104 85.373 -110.2176
37.562338 85.417 -110.9083
37.834530 85.462 -111.6046
38.108695 85.507 -112.3016
38.384846 85.554 -112.9912
38.662999 85.603 -113.6640
38.943167 85.656 -114.3119
39.225365 85.713 -114.9308
39.509608 85.776 -115.5220
39.795911 85.844 -116.0922
40.084289 85.917 -116.6515
40.374756 85.995 -117.2114
40.667328 86.074 -117.7824
40.962020 86.154 -118.3725
41.258848 86.234 -118.9873
41.557827 86.313 -119.6312
41.858972 86.392 -120.3080
42.162299 86.470 -121.0223
42.467824 86.549 -121.7787
42.775564 86.628 -122.5809
43.085533 86.707 -123.4306
43.397749 86.783 -124.3267
43.712227 86.857 -125.2650
44.028983 86.928 -126.2399
44.348036 86.995 -127.2458
44.669400 87.058 -128.2787
44.993093 87.118 -129.3372
45.319131 87.175 -130.4218
45.647532 87.228 -131.5337
45.978313 87.278 -132.6734
46.311491 87.321 -133.8395
46.647083 87.359 -135.0284
46.985107 87.389 -136.2349
47.325581 87.411 -137.4536
47.668521 87.423 -138.6800
48.013947 87.426 -139.9119
48.361876 87.417 -141.1487
48.712326 87.398 -142.3914
49.065315 87.366 -143.6416
49.420863 87.323 -144.8998
49.778987 87.268 -146.1647
50.139706 87.202 -147.4326
50.503039 87.126 -148.6974
50.869005 87.041 -149.9509
51.237623 86.949 -151.1835
51.608912 86.851 -152.3862
51.982891 86.750 -153.5507
52.359580 86.646 -154.6713
52.739000 86.541 -155.7444
53.121168 86.435 -156.7688
53.506106 86.329 -157.7446
53.893833 86.222 -158.6725
54.284370 86.115 -159.5533
54.677737 86.007 -160.3878
55.073955 85.899 -161.1769
55.473043 85.791 -161.9222
55.875024 85.684 -162.6262
56.279917 85.578 -163.2926
56.687745 85.474 -163.9258
57.098527 85.371 -164.5305
57.512287 85.271 -165.1110
57.929045 85.174 -165.6702
58.348822 85.080 -166.2090
58.771642 84.989 -166.7257
59.197525 84.899 -167.2155
59.626495 84.811 -167.6719
60.058573 84.724 -168.0880
60.493782 84.637 -168.4588
60.932145 84.551 -168.7826
61.373685 84.465 -169.0620
61.818424 84.381 -169.3028
62.266386 84.300 -169.5129
62.717593 84.222 -169.7008
63.172071 84.148 -169.8745
63.629842 84.079 -170.0409
64.090930 84.014 -170.2053
64.555359 83.955 -170.3711
65.023154 83.901 -170.5398
65.494339 83.852 -170.7119
65.968938 83.809 -170.8866
66.446976 83.772 -171.0629
66.928478 83.741 -171.2392
67.413469 83.714 -171.4135
67.901975 83.692 -171.5831
68.394021 83.673 -171.7451
68.889632 83.655 -171.8963
69.388835 83.639 -172.0339
69.891655 83.624 -172.1562
70.398118 83.608 -172.2635
70.908252 83.594 -172.3585
71.422083 83.579 -172.4462
71.939636 83.564 -172.5332
72.460941 83.549 -172.6260
72.986023 83.534 -172.7299
73.514909 83.517 -172.8482
74.047629 83.500 -172.9824
74.584208 83.481 -173.1329
75.124676 83.462 -173.2991
75.669061 83.442 -173.4800
76.217390 83.421 -173.6745
76.769692 83.399 -173.8815
77.325997 83.378 -174.0999
77.886333 83.356 -174.3289
78.450730 83.334 -174.5679
79.019216 83.312 -174.8165
79.591822 83.290 -175.0746
80.168577 83.267 -175.3426
80.749512 83.243 -175.6210
81.334656 83.219 -175.9101
81.924040 83.194 -176.2096
82.517696 83.168 -176.5187
83.115653 83.141 -176.8359
83.717943 83.112 -177.1595
84.324598 83.082 -177.4881
84.935649 83.050 -177.8208
85.551128 83.017 -178.1571
86.171066 82.982 -178.4964
86.795497 82.945 -178.8382
87.424453 82.907 -179.1814
88.057967 82.867 -179.5245
88.696071 82.825 -179.8658
89.338800 82.781 179.7967
89.986185 82.736 179.4649
90.638262 82.691 179.1403
91.295065 82.644 178.8238
91.956626 82.595 178.5159
92.622982 82.546 178.2163
93.294166 82.496 177.9249
93.970214 82.445 177.6413
94.651161 82.393 177.3658
95.337042 82.341 177.0993
96.027894 82.287 176.8431
96.723752 82.232 176.5991
97.424652 82.177 176.3688
98.130631 82.121 176.1541
98.841726 82.065 175.9566
99.557974 82.007 175.7776
100.279412 81.950 175.6179
101.006078 81.891 175.4778
101.738010 81.832 175.3565
102.475245 81.774 175.2524
103.217823 81.715 175.1620
103.965782 81.659 175.0807
104.719161 81.605 175.0022
105.477999 81.555 174.9200
106.242336 81.510 174.8288
107.012212 81.472 174.7257
107.787666 81.439 174.6110
108.568740 81.413 174.4872
109.355474 81.390 174.3580
110.147909 81.372 174.2270
110.946086 81.355 174.0970
111.750047 81.340 173.9701
112.559834 81.326 173.8478
113.375489 81.312 173.7307
114.197055 81.299 173.6188
115.024574 81.286 173.5120
115.858089 81.274 173.4091
116.697645 81.263 173.3087
117.543284 81.252 173.2088
118.395051 81.241 173.1068
119.252990 81.230 173.0002
120.117147 81.220 172.8866
120.987565 81.209 172.7642
121.864291 81.198 172.6312
122.747370 81.187 172.4866
123.636848 81.176 172.3294
124.532771 81.165 172.1592
125.435187 81.155 171.9763
126.344142 81.144 171.7820
127.259684 81.133 171.5782
128.181860 81.121 171.3665
129.110718 81.108 171.1479
130.046308 81.092 170.9225
130.988677 81.074 170.6897
131.937875 81.053 170.4490
132.893951 81.028 170.1999
133.856956 81.000 169.9424
134.826938 80.968 169.6769
135.803950 80.932 169.4045
136.788041 80.892 169.1271
137.779264 80.848 168.8470
138.777669 80.799 168.5672
139.783309 80.745 168.2904
140.796237 80.686 168.0191
141.816504 80.622 167.7549
142.844165 80.554 167.4987
143.879273 80.480 167.2507
144.921881 80.403 167.0111
145.972045 80.322 166.7802
147.029819 80.237 166.5591
148.095257 80.150 166.3496
149.168417 80.060 166.1547
150.249353 79.968 165.9779
151.338121 79.874 165.8243
152.434780 79.778 165.6991
153.539385 79.681 165.6074
154.651995 79.581 165.5530
155.772667 79.480 165.5381
156.901460 79.378 165.5630
158.038432 79.274 165.6272
159.183644 79.170 165.7294
160.337154 79.065 165.8684
161.499023 78.961 166.0426
162.669312 78.858 166.2509
163.848081 78.757 166.4920
165.035392 78.658 166.7650
166.231306 78.561 167.0688
167.435887 78.467 167.4022
168.649196 78.376 167.7634
169.871298 78.288 168.1503
171.102255 78.203 168.5610
172.342133 78.122 168.9938
173.590995 78.046 169.4476
174.848907 77.974 169.9214
176.115934 77.908 170.4146
177.392143 77.848 170.9253
178.677599 77.794 171.4507
179.972371 77.745 171.9870
181.276525 77.701 172.5292
182.590129 77.663 173.0728
183.913252 77.629 173.6134
185.245964 77.599 174.1477
186.588332 77.573 174.6732
187.940428 77.551 175.1891
189.302322 77.532 175.6951
190.674085 77.516 176.1918
192.055788 77.504 176.6795
193.447503 77.493 177.1572
194.849303 77.485 177.6224
196.261262 77.479 178.0712
197.683452 77.475 178.4985
199.115948 77.473 178.8997
200.558824 77.472 179.2714
202.012156 77.472 179.6125
203.476019 77.473 179.9250
204.950490 77.475 -179.7864
206.435646 77.478 -179.5156
207.931564 77.482 -179.2559
209.438322 77.488 -179.0018
210.955998 77.494 -178.7496
212.484672 77.501 -178.4965
214.024424 77.509 -178.2412
215.575333 77.519 -177.9831
217.137481 77.530 -177.7226
218.710948 77.541 -177.4602
220.295818 77.554 -177.1965
221.892172 77.568 -176.9323
223.500094 77.583 -176.6681
225.119668 77.600 -176.4052
226.750978 77.617 -176.1446
228.394109 77.636 -175.8867
230.049147 77.656 -175.6314
231.716178 77.678 -175.3778
233.395289 77.700 -175.1248
235.086567 77.724 -174.8721
236.790102 77.748 -174.6200
238.505980 77.772 -174.3705
240.234293 77.797 -174.1264
241.975130 77.823 -173.8908
243.728581 77.850 -173.6664
245.494739 77.878 -173.4544
247.273695 77.908 -173.2544
249.065542 77.939 -173.0651
250.870374 77.971 -172.8845
252.688284 78.004 -172.7103
254.519367 78.039 -172.5408
256.363720 78.074 -172.3744
258.221437 78.111 -172.2088
260.092616 78.148 -172.0415
261.977354 78.188 -171.8699
263.875750 78.228 -171.6924
265.787903 78.271 -171.5089
267.713911 78.317 -171.3208
269.653877 78.364 -171.1315
271.607900 78.413 -170.9445
273.576083 78.463 -170.7637
275.558528 78.513 -170.5918
277.555338 78.564 -170.4308
279.566619 78.615 -170.2818
281.592474 78.666 -170.1449
283.633009 78.718 -170.0199
285.688331 78.770 -169.9058
287.758546 78.823 -169.8018
289.843763 78.878 -169.7071
291.944090 78.933 -169.6215
294.059638 78.989 -169.5450
296.190515 79.045 -169.4779
298.336833 79.101 -169.4207
300.498705 79.158 -169.3736
302.676243 79.214 -169.3368
304.869559 79.270 -169.3102
307.078770 79.326 -169.2934
309.303989 79.382 -169.2863
311.545334 79.437 -169.2886
313.802919 79.492 -169.3004
316.076865 79.547 -169.3217
318.367288 79.602 -169.3526
320.674309 79.656 -169.3934
322.998047 79.709 -169.4437
325.338624 79.762 -169.5033
327.696162 79.813 -169.5718
330.070783 79.863 -169.6487
332.462612 79.911 -169.7333
334.871773 79.958 -169.8251
337.298392 80.003 -169.9233
339.742595 80.047 -170.0275
342.204510 80.089 -170.1371
344.684265 80.128 -170.2523
347.181989 80.166 -170.3734
349.697813 80.202 -170.5010
352.231868 80.237 -170.6356
354.784285 80.269 -170.7773
357.355198 80.299 -170.9258
359.944741 80.326 -171.0806
362.553049 80.352 -171.2409
365.180258 80.375 -171.4059
367.826505 80.397 -171.5749
370.491927 80.416 -171.7475
373.176665 80.433 -171.9236
375.880856 80.448 -172.1029
378.604644 80.461 -172.2849
381.348169 80.472 -172.4685
384.111575 80.481 -172.6526
386.895006 80.488 -172.8361
389.698607 80.493 -173.0176
392.522524 80.496 -173.1962
395.366904 80.496 -173.3705
398.231895 80.494 -173.5390
401.117648 80.490 -173.6996
404.024312 80.484 -173.8499
406.952038 80.476 -173.9876
409.900981 80.466 -174.1107
412.871292 80.455 -174.2179
415.863128 80.444 -174.3088
418.876643 80.431 -174.3839
421.911996 80.418 -174.4446
424.969344 80.404 -174.4933
428.048847 80.391 -174.5333
431.150666 80.379 -174.5686
434.274961 80.368 -174.6034
437.421897 80.357 -174.6420
440.591636 80.347 -174.6879
443.784345 80.338 -174.7440
447.000189 80.328 -174.8126
450.239337 80.319 -174.8947
453.501956 80.309 -174.9910
456.788219 80.298 -175.1011
460.098294 80.286 -175.2241
463.432356 80.273 -175.3583
466.790578 80.259 -175.5020
470.173135 80.243 -175.6535
473.580203 80.228 -175.8111
477.011961 80.211 -175.9736
480.468586 80.194 -176.1401
483.950259 80.176 -176.3096
487.457163 80.159 -176.4818
490.989478 80.141 -176.6561
494.547390 80.124 -176.8327
498.131084 80.107 -177.0117
501.740748 80.091 -177.1934
505.376568 80.075 -177.3783
509.038735 80.059 -177.5670
512.727439 80.044 -177.7600
516.442874 80.029 -177.9581
520.185232 80.014 -178.1616
523.954708 80.000 -178.3710
527.751500 79.985 -178.5861
531.575805 79.970 -178.8066
535.427822 79.955 -179.0315
539.307753 79.940 -179.2595
543.215800 79.925 -179.4889
547.152165 79.909 -179.7183
551.117055 79.893 -179.9463
555.110677 79.877 179.8287
559.133237 79.860 179.6082
563.184947 79.842 179.3941
567.266018 79.824 179.1887
571.376661 79.804 178.9938
575.517092 79.784 178.8116
579.687526 79.762 178.6435
583.888181 79.739 178.4905
588.119275 79.715 178.3533
592.381030 79.689 178.2320
596.673667 79.662 178.1263
600.997410 79.635 178.0355
605.352485 79.606 177.9586
609.739119 79.577 177.8943
614.157540 79.547 177.8408
618.607979 79.517 177.7964
623.090667 79.486 177.7588
627.605839 79.454 177.7260
632.153730 79.422 177.6956
636.734576 79.388 177.6658
641.348617 79.354 177.6348
645.996094 79.318 177.6009
650.677248 79.280 177.5630
655.392323 79.241 177.5202
660.141566 79.198 177.4721
664.925224 79.153 177.4189
669.743546 79.105 177.3616
674.596784 79.052 177.3019
679.485191 78.995 177.2424
684.409020 78.933 177.1864
689.368530 78.866 177.1382
694.363979 78.793 177.1025
699.395626 78.715 177.0849
704.463736 78.630 177.0911
709.568570 78.540 177.1275
714.710396 78.444 177.2001
719.889483 78.343 177.3151
725.106099 78.238 177.4781
730.360516 78.129 177.6942
735.653010 78.016 177.9674
740.983855 77.902 178.3011
746.353329 77.787 178.6971
751.761713 77.672 179.1565
757.209288 77.559 179.6785
762.696339 77.449 -179.7386
768.223151 77.342 -179.0984
773.790013 77.242 -178.4055
779.397214 77.147 -177.6661
785.045047 77.061 -176.8873
790.733808 76.983 -176.0773
796.463791 76.914 -175.2449
802.235296 76.854 -174.3990
808.048623 76.804 -173.5483
813.904077 76.764 -172.7009
819.801961 76.733 -171.8640
825.742584 76.712 -171.0435
831.726255 76.698 -170.2447
837.753287 76.694 -169.4713
843.823992 76.696 -168.7262
849.938689 76.706 -168.0117
856.097695 76.721 -167.3292
862.301332 76.743 -166.6796
868.549922 76.769 -166.0631
874.843793 76.800 -165.4792
881.183272 76.835 -164.9270
887.568689 76.873 -164.4051
894.000378 76.915 -163.9116
900.478673 76.959 -163.4448
907.003913 77.006 -163.0027
913.576437 77.056 -162.5835
920.196588 77.108 -162.1858
926.864712 77.163 -161.8081
933.581156 77.221 -161.4496
940.346270 77.281 -161.1098
947.160407 77.345 -160.7888
954.023921 77.413 -160.4875
960.937172 77.485 -160.2074
967.900519 77.560 -159.9510
974.914325 77.641 -159.7214
981.978956 77.725 -159.5219
989.094780 77.814 -159.3561
996.262169 77.906 -159.2277
1003.481495 78.002 -159.1400
1010.753136 78.100 -159.0958
1018.077470 78.200 -159.0975
1025.454879 78.301 -159.1467
1032.885748 78.401 -159.2442
1040.370463 78.499 -159.3900
1047.909417 78.594 -159.5832
1055.503000 78.686 -159.8218
1063.151610 78.771 -160.1027
1070.855645 78.850 -160.4213
1078.615506 78.921 -160.7716
1086.431599 78.982 -161.1460
1094.304330 79.033 -161.5348
1102.234110 79.073 -161.9266
1110.221353 79.101 -162.3082
1118.266475 79.117 -162.6647
1126.369895 79.121 -162.9805
1134.532035 79.115 -163.2396
1142.753322 79.100 -163.4269
1151.034184 79.079 -163.5293
1159.375052 79.053 -163.5368
1167.776361 79.026 -163.4433
1176.238550 79.000 -163.2475
1184.762060 78.979 -162.9529
1193.347334 78.966 -162.5680
1201.994821 78.964 -162.1055
1210.704971 78.973 -161.5812
1219.478238 78.995 -161.0125
1228.315080 79.032 -160.4177
1237.215957 79.082 -159.8138
1246.181334 79.145 -159.2167
1255.211678 79.221 -158.6399
1264.307459 79.308 -158.0946
1273.469152 79.406 -157.5900
1282.697235 79.511 -157.1331
1291.992188 79.625 -156.7291
1301.354495 79.744 -156.3817
1310.784647 79.868 -156.0936
1320.283132 79.995 -155.8664
1329.850448 80.125 -155.7007
1339.487093 80.255 -155.5966
1349.193569 80.386 -155.5535
1358.970381 80.516 -155.5703
1368.818041 80.645 -155.6453
1378.737061 80.772 -155.7766
1388.727958 80.895 -155.9618
1398.791253 81.015 -156.1983
1408.927471 81.131 -156.4830
1419.137140 81.242 -156.8119
1429.420793 81.347 -157.1807
1439.778965 81.445 -157.5837
1450.212197 81.537 -158.0147
1460.721033 81.622 -158.4664
1471.306019 81.699 -158.9310
1481.967709 81.768 -159.4003
1492.706658 81.829 -159.8662
1503.523426 81.882 -160.3211
1514.418576 81.928 -160.7578
1525.392678 81.966 -161.1701
1536.446302 81.997 -161.5524
1547.580025 82.022 -161.8998
1558.794428 82.040 -162.2080
1570.090095 82.053 -162.4733
1581.467615 82.060 -162.6931
1592.927581 82.064 -162.8660
1604.470591 82.063 -162.9923
1616.097246 82.060 -163.0739
1627.808153 82.056 -163.1145
1639.603922 82.050 -163.1190
1651.485168 82.044 -163.0934
1663.452510 82.039 -163.0441
1675.506573 82.034 -162.9779
1687.647984 82.029 -162.9013
1699.877377 82.026 -162.8202
1712.195390 82.022 -162.7400
1724.602663 82.019 -162.6651
1737.099845 82.015 -162.5984
1749.687587 82.010 -162.5416
1762.366544 82.004 -162.4944
1775.137379 81.995 -162.4549
1788.000756 81.984 -162.4197
1800.957346 81.970 -162.3843
1814.007826 81.952 -162.3439
1827.152874 81.932 -162.2941
1840.393177 81.910 -162.2322
1853.729425 81.886 -162.1579
1867.162312 81.862 -162.0742
1880.692540 81.837 -161.9868
1894.320813 81.811 -161.9031
1908.047843 81.784 -161.8305
1921.874344 81.756 -161.7744
1935.801038 81.723 -161.7368
1949.828650 81.687 -161.7161
1963.957912 81.644 -161.7070
1978.189561 81.594 -161.7017
1992.524338 81.537 -161.6912
2006.962991 81.474 -161.6666
2021.506272 81.404 -161.6206
2036.154940 81.328 -161.5480
2050.909758 81.249 -161.4465
2065.771495 81.166 -161.3165
2080.740927 81.083 -161.1606
2095.818833 80.998 -160.9825
2111.006001 80.914 -160.7862
2126.303220 80.830 -160.5755
2141.711290 80.747 -160.3535
2157.231013 80.665 -160.1227
2172.863198 80.584 -159.8858
2188.608660 80.505 -159.6455
2204.468221 80.427 -159.4047
2220.442706 80.350 -159.1656
2236.532950 80.273 -158.9292
2252.739789 80.196 -158.6952
2269.064070 80.118 -158.4614
2285.506644 80.039 -158.2248
2302.068367 79.958 -157.9810
2318.750104 79.874 -157.7243
2335.552723 79.787 -157.4471
2352.477101 79.696 -157.1392
2369.524119 79.602 -156.7872
2386.694668 79.503 -156.3748
2403.989641 79.403 -155.8831
2421.409941 79.302 -155.2935
2438.956476 79.203 -154.5907
2456.630160 79.111 -153.7661
2474.431915 79.029 -152.8199
2492.362668 78.963 -151.7617
2510.423356 78.916 -150.6091
2528.614918 78.891 -149.3847
2546.938304 78.890 -148.1139
2565.394469 78.913 -146.8222
2583.984375 78.962 -145.5329
2602.708991 79.035 -144.2660
2621.569293 79.130 -143.0379
2640.566265 79.247 -141.8620
2659.700897 79.384 -140.7504
2678.974186 79.540 -139.7137
2698.387137 79.712 -138.7623
2717.940763 79.898 -137.9051
2737.636082 80.097 -137.1491
2757.474121 80.305 -136.4991
2777.455915 80.521 -135.9576
2797.582506 80.741 -135.5252
2817.854942 80.965 -135.2015
2838.274281 81.190 -134.9856
2858.841586 81.413 -134.8760
2879.557931 81.633 -134.8707
2900.424394 81.848 -134.9656
2921.442065 82.055 -135.1542
2942.612039 82.252 -135.4272
2963.935418 82.438 -135.7728
2985.413316 82.611 -136.1773
3007.046852 82.772 -136.6265
3028.837153 82.920 -137.1068
3050.785356 83.056 -137.6059
3072.892604 83.180 -138.1140
3095.160050 83.293 -138.6251
3117.588856 83.397 -139.1369
3140.180190 83.492 -139.6507
3162.935230 83.579 -140.1709
3185.855163 83.657 -140.7031
3208.941182 83.725 -141.2526
3232.194493 83.785 -141.8244
3255.616307 83.833 -142.4226
3279.207844 83.870 -143.0508
3302.970336 83.894 -143.7112
3326.905021 83.903 -144.4027
3351.013146 83.894 -145.1190
3375.295969 83.866 -145.8470
3399.754755 83.816 -146.5661
3424.390779 83.743 -147.2486
3449.205326 83.646 -147.8603
3474.199690 83.525 -148.3622
3499.375173 83.383 -148.7126
3524.733088 83.223 -148.8718
3550.274757 83.053 -148.8086
3576.001511 82.881 -148.5084
3601.914692 82.717 -147.9801
3628.015651 82.571 -147.2590
3654.305748 82.450 -146.4017
3680.786354 82.361 -145.4757
3707.458849 82.303 -144.5444
3734.324624 82.276 -143.6558
3761.385080 82.277 -142.8361
3788.641627 82.301 -142.0923
3816.095686 82.346 -141.4183
3843.748688 82.410 -140.8038
3871.602076 82.494 -140.2436
3899.657300 82.597 -139.7423
3927.915825 82.719 -139.3157
3956.379122 82.858 -138.9852
3985.048676 83.012 -138.7713
4013.925981 83.175 -138.6865
4043.012544 83.343 -138.7338
4072.309879 83.513 -138.9072
4101.819515 83.680 -139.1952
4131.542990 83.843 -139.5840
4161.481854 83.999 -140.0600
4191.637667 84.148 -140.6110
4222.012001 84.287 -141.2265
4252.606441 84.417 -141.8969
4283.422580 84.536 -142.6130
4314.462026 84.643 -143.3658
4345.726396 84.738 -144.1469
4377.217321 84.822 -144.9496
4408.936442 84.894 -145.7688
4440.885413 84.955 -146.6013
4473.065899 85.004 -147.4444
4505.479579 85.040 -148.2954
4538.128141 85.065 -149.1505
4571.013288 85.077 -150.0048
4604.136735 85.077 -150.8530
4637.500207 85.064 -151.6893
4671.105446 85.040 -152.5080
4704.954201 85.005 -153.3033
4739.048239 84.959 -154.0694
4773.389336 84.903 -154.7999
4807.979283 84.837 -155.4874
4842.819883 84.764 -156.1237
4877.912952 84.684 -156.7000
4913.260320 84.599 -157.2078
4948.863830 84.511 -157.6407
4984.725337 84.424 -157.9951
5020.846712 84.340 -158.2717
5057.229836 84.262 -158.4743
5093.876609 84.194 -158.6098
5130.788938 84.136 -158.6863
5167.968750 84.091 -158.7127
5205.417982 84.061 -158.6976
5243.138586 84.048 -158.6501
5281.132530 84.052 -158.5802
5319.401793 84.075 -158.5002
5357.948371 84.118 -158.4257
5396.774274 84.182 -158.3752
5435.881525 84.266 -158.3693
5475.272163 84.369 -158.4292
5514.948243 84.490 -158.5751
5554.911831 84.625 -158.8250
5595.165012 84.772 -159.1941
5635.709884 84.928 -159.6944
5676.548561 85.089 -160.3349
5717.683172 85.252 -161.1210
5759.115861 85.413 -162.0558
5800.848789 85.568 -163.1400
5842.884130 85.716 -164.3736
5885.224077 85.852 -165.7559
5927.870837 85.972 -167.2851
5970.826633 86.073 -168.9572
6014.093704 86.151 -170.7642
6057.674306 86.200 -172.6934
6101.570711 86.216 -174.7260
6145.785208 86.195 -176.8377
6190.320101 86.134 -178.9985
6235.177712 86.029 178.8279
6280.360380 85.878 176.6829
6325.870460 85.678 174.6133
6371.710325 85.431 172.6697
6417.882365 85.135 170.9054
6464.388986 84.795 169.3740
6511.232613 84.413 168.1278
6558.415689 83.994 167.2156
6605.940673 83.544 166.6823
6653.810042 83.072 166.5677
6702.026292 82.585 166.9047
6750.591937 82.093 167.7149
6799.509509 81.608 169.0031
6848.781558 81.143 170.7507
6898.410653 80.709 172.9115
6948.399380 80.320 175.4122
6998.750346 79.986 178.1571
7049.466176 79.715 -178.9617
7100.549514 79.513 -176.0540
7152.003023 79.380 -173.2218
7203.829385 79.316 -170.5537
7256.031302 79.316 -168.1237
7308.611496 79.373 -165.9919
7361.572708 79.479 -164.2062
7414.917698 79.623 -162.8034
7468.649249 79.794 -161.8079
7522.770160 79.980 -161.2307
7577.283253 80.167 -161.0685
7632.191371 80.343 -161.3034
7687.497376 80.495 -161.9022
7743.204151 80.612 -162.8164
7799.314600 80.684 -163.9820
7855.831649 80.703 -165.3214
7912.758244 80.663 -166.7444
7970.097352 80.559 -168.1493
8027.851962 80.392 -169.4232
8086.025087 80.162 -170.4422
8144.619758 79.876 -171.0730
8203.639030 79.543 -171.1760
8263.085980 79.179 -170.6129
8322.963708 78.804 -169.2613
8383.275334 78.443 -167.0405
8444.024002 78.126 -163.9510
8505.212881 77.881 -160.1153
8566.845160 77.735 -155.7935
8628.924051 77.702 -151.3471
8691.452792 77.783 -147.1526
8754.434642 77.968 -143.5078
8817.872884 78.236 -140.5803
8881.770826 78.561 -138.4115
8946.131799 78.921 -136.9541
9010.959157 79.299 -136.1164
9076.256282 79.683 -135.7960
9142.026576 80.063 -135.8985
9208.273470 80.436 -136.3459
9275.000415 80.800 -137.0779
9342.210891 81.154 -138.0507
9409.908403 81.499 -139.2346
9478.096478 81.836 -140.6105
9546.778672 82.165 -142.1676
9615.958566 82.488 -143.9015
9685.639765 82.805 -145.8113
9755.825904 83.117 -147.8994
9826.520640 83.423 -150.1703
9897.727659 83.724 -152.6312
9969.450674 84.019 -155.2909
10041.693423 84.307 -158.1599
10114.459673 84.584 -161.2491
10187.753217 84.848 -164.5696
10261.577877 85.094 -168.1313
10335.937500 85.316 -171.9406
10410.835964 85.506 -175.9984
10486.277173 85.659 179.7016
10562.265060 85.764 175.1757
10638.803587 85.815 170.4513
10715.896743 85.804 165.5670
10793.548548 85.727 160.5706
10871.763050 85.579 155.5162
10950.544327 85.358 150.4606
11029.896485 85.066 145.4594
11109.823662 84.704 140.5633
11190.330024 84.276 135.8141
11271.419768 83.788 131.2441
11353.097122 83.245 126.8740
11435.366344 82.653 122.7124
11518.231722 82.021 118.7564
11601.697577 81.355 114.9913
11685.768261 80.662 111.3923
11770.448155 79.948 107.9262
11855.741674 79.221 104.5533
11941.653265 78.484 101.2296
12028.187408 77.743 97.9100
12115.348612 77.000 94.5498
12203.141422 76.257 91.1064
12291.570415 75.516 87.5382
12380.640201 74.775 83.8031
12470.355424 74.034 79.8571
12560.720760 73.294 75.6504
12651.740920 72.553 71.1242
12743.420650 71.809 66.2050
12835.764729 71.064 60.7963
12928.777972 70.317 54.7674
13022.465227 69.568 47.9341
13116.831378 68.821 40.0315
13211.881345 68.080 30.6805
13307.620084 67.353 19.3754
13404.052584 66.654 5.5801
13501.183875 66.001 -10.8796
13599.019019 65.420 -29.1210
13697.563116 64.943 -47.0837
13796.821305 64.603 -62.8124
13896.798760 64.427 -75.6166
13997.500692 64.432 -85.8127
14098.932352 64.615 -94.0325
14201.099028 64.957 -100.8625
14304.006046 65.429 -106.7587
14407.658770 65.997 -112.0559
14512.062604 66.632 -116.9969
14617.222992 67.309 -121.7579
14723.145416 68.010 -126.4672
14829.835397 68.722 -131.2195
14937.298497 69.437 -136.0864
15045.540320 70.149 -141.1230
15154.566507 70.852 -146.3739
15264.382743 71.541 -151.8747
15374.994752 72.214 -157.6550
15486.408302 72.866 -163.7391
15598.629201 73.493 -170.1466
15711.663298 74.092 -176.8924
15825.516487 74.659 176.0128
15940.194703 75.190 168.5633
16055.703925 75.682 160.7574
16172.050174 76.134 152.5995
16289.239516 76.544 144.0981
16407.278061 76.915 135.2664
16526.171961 77.248 126.1196
16645.927415 77.549 116.6747
16766.550667 77.826 106.9459
16888.048005 78.087 96.9440
17010.425762 78.345 86.6735
17133.690320 78.611 76.1310
17257.848103 78.896 65.3032
17382.905584 79.206 54.1678
17508.869284 79.546 42.6935
17635.745768 79.912 30.8438
17763.541652 80.297 18.5830
17892.263597 80.690 5.8843
18021.918315 81.077 -7.2601
18152.512564 81.444 -20.8315
18284.053153 81.781 -34.7791
18416.546939 82.078 -49.0247
18550.000830 82.332 -63.4821
18684.421783 82.541 -78.0931
18819.816805 82.706 -92.9036
18956.192956 82.830 -108.2412
19093.557344 82.915 -125.2554
19231.917131 82.967 -148.1561
19371.279531 82.989 165.8905
19511.651807 82.990 99.4683
19653.041280 82.978 70.1710
19795.455318 82.962 58.1099
19938.901348 82.952 53.2029
