* Measurement data measured by REW V5.31.3
* Source: EXCL: Headset (USB-C to 3.5mm Headphone Jack Adapter), MICROPHONE (Master Volume), 0, volume: 0.750
* Format: 256k Log Swept Sine, 1 sweep at -12.0 dBFS with no timing reference
* Dated: Apr 7, 2025 5:11:03 PM
* REW Settings:
*  C-weighting compensation: Off
*  Target level: 75.0 dB
* Note: ; 
* Measurement: Maxwell (Wired) WC L5
* Smoothing: 1/6 octave
* Frequency Step: 96 ppo
* Start Frequency: 20.0 Hz
*
* Freq(Hz) SPL(dB) Phase(degrees)
20.187378 79.726 -22.1422
20.333664 79.811 -22.4356
20.481010 79.924 -22.8391
20.629424 80.060 -23.3549
20.778913 80.217 -23.9836
20.929486 80.388 -24.7226
21.081150 80.570 -25.5655
21.233912 80.760 -26.5017
21.387782 80.952 -27.5169
21.542767 81.146 -28.5940
21.698874 81.339 -29.7142
21.856113 81.530 -30.8591
22.014492 81.717 -32.0119
22.174018 81.901 -33.1587
22.334700 82.080 -34.2898
22.496546 82.256 -35.4005
22.659566 82.427 -36.4909
22.823766 82.593 -37.5656
22.989157 82.753 -38.6333
23.155745 82.907 -39.7050
23.323542 83.055 -40.7933
23.492554 83.194 -41.9109
23.662790 83.325 -43.0692
23.834261 83.447 -44.2780
24.006973 83.560 -45.5444
24.180938 83.665 -46.8723
24.356163 83.762 -48.2630
24.532658 83.852 -49.7144
24.710431 83.936 -51.2217
24.889493 84.016 -52.7773
25.069853 84.092 -54.3711
25.251519 84.165 -55.9911
25.434502 84.235 -57.6238
25.618811 84.301 -59.2546
25.804456 84.365 -60.8686
25.991445 84.424 -62.4516
26.179790 84.478 -63.9907
26.369500 84.527 -65.4755
26.560584 84.571 -66.8986
26.753053 84.609 -68.2564
26.946917 84.643 -69.5499
27.142185 84.672 -70.7845
27.338869 84.700 -71.9699
27.536977 84.725 -73.1197
27.736522 84.751 -74.2502
27.937512 84.778 -75.3788
28.139959 84.808 -76.5229
28.343872 84.840 -77.6974
28.549264 84.874 -78.9140
28.756143 84.912 -80.1793
28.964522 84.951 -81.4945
29.174411 84.992 -82.8555
29.385821 85.034 -84.2534
29.598763 85.076 -85.6757
29.813248 85.118 -87.1077
30.029287 85.160 -88.5343
30.246891 85.201 -89.9417
30.466073 85.241 -91.3185
30.686842 85.280 -92.6569
30.909212 85.319 -93.9528
31.133193 85.357 -95.2060
31.358797 85.395 -96.4194
31.586035 85.431 -97.5982
31.814921 85.466 -98.7485
32.045465 85.499 -99.8768
32.277680 85.530 -100.9888
32.511577 85.559 -102.0889
32.747169 85.586 -103.1803
32.984469 85.612 -104.2650
33.223488 85.636 -105.3441
33.464239 85.659 -106.4177
33.706735 85.682 -107.4858
33.950987 85.705 -108.5472
34.197010 85.728 -109.6007
34.444816 85.752 -110.6439
34.694417 85.776 -111.6741
34.945827 85.800 -112.6881
35.199059 85.825 -113.6828
35.454126 85.852 -114.6559
35.711041 85.879 -115.6061
35.969818 85.908 -116.5334
36.230470 85.939 -117.4388
36.493011 85.972 -118.3239
36.757455 86.006 -119.1899
37.023814 86.042 -120.0373
37.292104 86.079 -120.8650
37.562338 86.117 -121.6711
37.834530 86.155 -122.4532
38.108695 86.194 -123.2093
38.384846 86.234 -123.9390
38.662999 86.275 -124.6441
38.943167 86.318 -125.3287
39.225365 86.362 -125.9995
39.509608 86.407 -126.6643
39.795911 86.453 -127.3315
40.084289 86.499 -128.0087
40.374756 86.545 -128.7017
40.667328 86.589 -129.4137
40.962020 86.632 -130.1458
41.258848 86.674 -130.8967
41.557827 86.716 -131.6634
41.858972 86.758 -132.4426
42.162299 86.803 -133.2313
42.467824 86.850 -134.0277
42.775564 86.899 -134.8311
43.085533 86.951 -135.6427
43.397749 87.003 -136.4643
43.712227 87.054 -137.2990
44.028983 87.101 -138.1502
44.348036 87.142 -139.0223
44.669400 87.176 -139.9206
44.993093 87.202 -140.8513
45.319131 87.219 -141.8210
45.647532 87.228 -142.8360
45.978313 87.230 -143.9010
46.311491 87.225 -145.0175
46.647083 87.216 -146.1832
46.985107 87.202 -147.3912
47.325581 87.186 -148.6315
47.668521 87.166 -149.8914
48.013947 87.142 -151.1575
48.361876 87.113 -152.4175
48.712326 87.077 -153.6608
49.065315 87.034 -154.8794
49.420863 86.982 -156.0674
49.778987 86.920 -157.2208
50.139706 86.849 -158.3366
50.503039 86.768 -159.4131
50.869005 86.680 -160.4492
51.237623 86.584 -161.4448
51.608912 86.484 -162.4014
51.982891 86.380 -163.3215
52.359580 86.273 -164.2092
52.739000 86.164 -165.0689
53.121168 86.053 -165.9048
53.506106 85.941 -166.7199
53.893833 85.826 -167.5152
54.284370 85.711 -168.2898
54.677737 85.594 -169.0412
55.073955 85.476 -169.7665
55.473043 85.357 -170.4633
55.875024 85.238 -171.1305
56.279917 85.120 -171.7691
56.687745 85.002 -172.3818
57.098527 84.885 -172.9721
57.512287 84.770 -173.5433
57.929045 84.656 -174.0967
58.348822 84.546 -174.6307
58.771642 84.439 -175.1397
59.197525 84.336 -175.6156
59.626495 84.238 -176.0491
60.058573 84.146 -176.4332
60.493782 84.059 -176.7652
60.932145 83.979 -177.0474
61.373685 83.906 -177.2864
61.818424 83.839 -177.4906
62.266386 83.779 -177.6686
62.717593 83.725 -177.8272
63.172071 83.677 -177.9714
63.629842 83.634 -178.1053
64.090930 83.598 -178.2319
64.555359 83.566 -178.3539
65.023154 83.538 -178.4738
65.494339 83.512 -178.5935
65.968938 83.488 -178.7152
66.446976 83.465 -178.8405
66.928478 83.442 -178.9709
67.413469 83.418 -179.1075
67.901975 83.395 -179.2508
68.394021 83.373 -179.4000
68.889632 83.351 -179.5529
69.388835 83.331 -179.7058
69.891655 83.312 -179.8541
70.398118 83.294 -179.9943
70.908252 83.276 179.8754
71.422083 83.259 179.7542
71.939636 83.242 179.6395
72.460941 83.224 179.5276
72.986023 83.205 179.4152
73.514909 83.184 179.2997
74.047629 83.162 179.1795
74.584208 83.139 179.0532
75.124676 83.115 178.9192
75.669061 83.090 178.7757
76.217390 83.063 178.6209
76.769692 83.036 178.4532
77.325997 83.007 178.2713
77.886333 82.977 178.0751
78.450730 82.946 177.8652
79.019216 82.915 177.6434
79.591822 82.883 177.4120
80.168577 82.851 177.1731
80.749512 82.819 176.9283
81.334656 82.786 176.6787
81.924040 82.753 176.4253
82.517696 82.719 176.1694
83.115653 82.685 175.9124
83.717943 82.650 175.6556
84.324598 82.614 175.4003
84.935649 82.577 175.1469
85.551128 82.540 174.8949
86.171066 82.502 174.6436
86.795497 82.462 174.3913
87.424453 82.422 174.1367
88.057967 82.380 173.8787
88.696071 82.336 173.6169
89.338800 82.291 173.3519
89.986185 82.244 173.0853
90.638262 82.195 172.8188
91.295065 82.145 172.5546
91.956626 82.093 172.2943
92.622982 82.040 172.0393
93.294166 81.988 171.7911
93.970214 81.934 171.5506
94.651161 81.881 171.3192
95.337042 81.828 171.0980
96.027894 81.775 170.8880
96.723752 81.722 170.6901
97.424652 81.669 170.5044
98.130631 81.616 170.3304
98.841726 81.563 170.1667
99.557974 81.510 170.0118
100.279412 81.458 169.8638
101.006078 81.406 169.7216
101.738010 81.354 169.5852
102.475245 81.303 169.4554
103.217823 81.254 169.3340
103.965782 81.205 169.2228
104.719161 81.158 169.1231
105.477999 81.113 169.0355
106.242336 81.069 168.9595
107.012212 81.027 168.8936
107.787666 80.988 168.8355
108.568740 80.950 168.7835
109.355474 80.916 168.7359
110.147909 80.884 168.6917
110.946086 80.856 168.6494
111.750047 80.831 168.6075
112.559834 80.809 168.5638
113.375489 80.789 168.5165
114.197055 80.771 168.4645
115.024574 80.756 168.4077
115.858089 80.741 168.3473
116.697645 80.728 168.2849
117.543284 80.715 168.2227
118.395051 80.702 168.1624
119.252990 80.690 168.1052
120.117147 80.677 168.0515
120.987565 80.664 168.0004
121.864291 80.650 167.9500
122.747370 80.637 167.8976
123.636848 80.623 167.8403
124.532771 80.609 167.7761
125.435187 80.595 167.7039
126.344142 80.581 167.6242
127.259684 80.567 167.5381
128.181860 80.552 167.4468
129.110718 80.536 167.3513
130.046308 80.520 167.2517
130.988677 80.502 167.1475
131.937875 80.482 167.0369
132.893951 80.459 166.9180
133.856956 80.435 166.7888
134.826938 80.407 166.6480
135.803950 80.377 166.4954
136.788041 80.343 166.3317
137.779264 80.305 166.1593
138.777669 80.264 165.9812
139.783309 80.220 165.8014
140.796237 80.172 165.6240
141.816504 80.121 165.4531
142.844165 80.067 165.2924
143.879273 80.009 165.1449
144.921881 79.949 165.0131
145.972045 79.886 164.8992
147.029819 79.821 164.8046
148.095257 79.753 164.7304
149.168417 79.683 164.6767
150.249353 79.610 164.6435
151.338121 79.536 164.6311
152.434780 79.459 164.6404
153.539385 79.381 164.6731
154.651995 79.300 164.7316
155.772667 79.219 164.8185
156.901460 79.136 164.9362
158.038432 79.053 165.0861
159.183644 78.970 165.2687
160.337154 78.888 165.4833
161.499023 78.808 165.7288
162.669312 78.729 166.0034
163.848081 78.652 166.3051
165.035392 78.577 166.6320
166.231306 78.505 166.9816
167.435887 78.436 167.3516
168.649196 78.371 167.7395
169.871298 78.310 168.1428
171.102255 78.254 168.5591
172.342133 78.203 168.9871
173.590995 78.159 169.4255
174.848907 78.120 169.8741
176.115934 78.087 170.3330
177.392143 78.060 170.8019
178.677599 78.038 171.2798
179.972371 78.020 171.7644
181.276525 78.007 172.2527
182.590129 77.998 172.7406
183.913252 77.992 173.2240
185.245964 77.990 173.6989
186.588332 77.990 174.1618
187.940428 77.992 174.6100
189.302322 77.997 175.0413
190.674085 78.004 175.4544
192.055788 78.014 175.8486
193.447503 78.025 176.2233
194.849303 78.038 176.5779
196.261262 78.052 176.9119
197.683452 78.068 177.2242
199.115948 78.085 177.5145
200.558824 78.103 177.7830
202.012156 78.123 178.0312
203.476019 78.145 178.2610
204.950490 78.167 178.4748
206.435646 78.190 178.6748
207.931564 78.213 178.8624
209.438322 78.236 179.0386
210.955998 78.259 179.2042
212.484672 78.281 179.3604
214.024424 78.301 179.5085
215.575333 78.322 179.6501
217.137481 78.341 179.7864
218.710948 78.360 179.9189
220.295818 78.378 -179.9514
221.892172 78.396 -179.8230
223.500094 78.415 -179.6943
225.119668 78.434 -179.5639
226.750978 78.454 -179.4305
228.394109 78.476 -179.2938
230.049147 78.499 -179.1539
231.716178 78.523 -179.0115
233.395289 78.548 -178.8675
235.086567 78.574 -178.7221
236.790102 78.600 -178.5750
238.505980 78.628 -178.4255
240.234293 78.657 -178.2726
241.975130 78.688 -178.1156
243.728581 78.720 -177.9539
245.494739 78.755 -177.7872
247.273695 78.792 -177.6151
249.065542 78.831 -177.4375
250.870374 78.873 -177.2548
252.688284 78.918 -177.0683
254.519367 78.964 -176.8800
256.363720 79.013 -176.6926
258.221437 79.064 -176.5087
260.092616 79.117 -176.3308
261.977354 79.173 -176.1607
263.875750 79.230 -176.0001
265.787903 79.290 -175.8505
267.713911 79.351 -175.7137
269.653877 79.415 -175.5919
271.607900 79.480 -175.4874
273.576083 79.547 -175.4027
275.558528 79.616 -175.3401
277.555338 79.685 -175.3015
279.566619 79.756 -175.2886
281.592474 79.826 -175.3027
283.633009 79.897 -175.3446
285.688331 79.968 -175.4145
287.758546 80.038 -175.5122
289.843763 80.108 -175.6366
291.944090 80.175 -175.7861
294.059638 80.241 -175.9590
296.190515 80.304 -176.1529
298.336833 80.365 -176.3651
300.498705 80.422 -176.5926
302.676243 80.475 -176.8323
304.869559 80.524 -177.0809
307.078770 80.568 -177.3351
309.303989 80.608 -177.5912
311.545334 80.644 -177.8454
313.802919 80.674 -178.0939
316.076865 80.700 -178.3328
318.367288 80.722 -178.5583
320.674309 80.741 -178.7672
322.998047 80.755 -178.9570
325.338624 80.768 -179.1257
327.696162 80.778 -179.2723
330.070783 80.786 -179.3962
332.462612 80.793 -179.4979
334.871773 80.800 -179.5780
337.298392 80.807 -179.6375
339.742595 80.813 -179.6779
342.204510 80.820 -179.7003
344.684265 80.828 -179.7061
347.181989 80.837 -179.6968
349.697813 80.847 -179.6739
352.231868 80.857 -179.6393
354.784285 80.870 -179.5953
357.355198 80.883 -179.5443
359.944741 80.898 -179.4887
362.553049 80.914 -179.4309
365.180258 80.931 -179.3729
367.826505 80.951 -179.3167
370.491927 80.971 -179.2639
373.176665 80.994 -179.2162
375.880856 81.017 -179.1749
378.604644 81.042 -179.1410
381.348169 81.068 -179.1156
384.111575 81.095 -179.0990
386.895006 81.122 -179.0918
389.698607 81.150 -179.0943
392.522524 81.179 -179.1069
395.366904 81.208 -179.1303
398.231895 81.237 -179.1649
401.117648 81.267 -179.2111
404.024312 81.296 -179.2693
406.952038 81.326 -179.3398
409.900981 81.355 -179.4230
412.871292 81.384 -179.5194
415.863128 81.412 -179.6297
418.876643 81.439 -179.7548
421.911996 81.464 -179.8954
424.969344 81.487 179.9479
428.048847 81.508 179.7746
431.150666 81.526 179.5848
434.274961 81.542 179.3787
437.421897 81.554 179.1569
440.591636 81.564 178.9202
443.784345 81.571 178.6696
447.000189 81.574 178.4061
450.239337 81.575 178.1311
453.501956 81.573 177.8460
456.788219 81.569 177.5519
460.098294 81.562 177.2502
463.432356 81.552 176.9417
466.790578 81.541 176.6273
470.173135 81.528 176.3077
473.580203 81.512 175.9833
477.011961 81.495 175.6546
480.468586 81.477 175.3218
483.950259 81.457 174.9851
487.457163 81.435 174.6448
490.989478 81.412 174.3009
494.547390 81.387 173.9536
498.131084 81.361 173.6031
501.740748 81.332 173.2500
505.376568 81.302 172.8952
509.038735 81.269 172.5401
512.727439 81.234 172.1868
516.442874 81.197 171.8377
520.185232 81.157 171.4954
523.954708 81.115 171.1629
527.751500 81.070 170.8434
531.575805 81.024 170.5402
535.427822 80.976 170.2568
539.307753 80.926 169.9966
543.215800 80.876 169.7628
547.152165 80.826 169.5579
551.117055 80.776 169.3837
555.110677 80.728 169.2411
559.133237 80.681 169.1299
563.184947 80.636 169.0483
567.266018 80.595 168.9939
571.376661 80.556 168.9631
575.517092 80.522 168.9518
579.687526 80.490 168.9556
583.888181 80.462 168.9702
588.119275 80.437 168.9912
592.381030 80.414 169.0148
596.673667 80.394 169.0373
600.997410 80.376 169.0555
605.352485 80.359 169.0662
609.739119 80.343 169.0669
614.157540 80.327 169.0551
618.607979 80.311 169.0287
623.090667 80.294 168.9860
627.605839 80.275 168.9253
632.153730 80.255 168.8458
636.734576 80.232 168.7466
641.348617 80.206 168.6275
645.996094 80.176 168.4885
650.677248 80.141 168.3300
655.392323 80.102 168.1530
660.141566 80.058 167.9586
664.925224 80.007 167.7488
669.743546 79.950 167.5263
674.596784 79.885 167.2944
679.485191 79.812 167.0571
684.409020 79.731 166.8196
689.368530 79.640 166.5880
694.363979 79.540 166.3690
699.395626 79.430 166.1710
704.463736 79.309 166.0027
709.568570 79.178 165.8741
714.710396 79.037 165.7955
719.889483 78.886 165.7778
725.106099 78.726 165.8319
730.360516 78.557 165.9679
735.653010 78.382 166.1953
740.983855 78.201 166.5219
746.353329 78.016 166.9536
751.761713 77.830 167.4940
757.209288 77.643 168.1439
762.696339 77.458 168.9017
768.223151 77.277 169.7634
773.790013 77.102 170.7228
779.397214 76.935 171.7725
785.045047 76.777 172.9042
790.733808 76.629 174.1094
796.463791 76.493 175.3789
802.235296 76.370 176.7031
808.048623 76.262 178.0715
813.904077 76.168 179.4725
819.801961 76.090 -179.1067
825.742584 76.028 -177.6798
831.726255 75.983 -176.2606
837.753287 75.952 -174.8624
843.823992 75.937 -173.4971
849.938689 75.935 -172.1749
856.097695 75.945 -170.9032
862.301332 75.967 -169.6870
868.549922 75.997 -168.5283
874.843793 76.036 -167.4269
881.183272 76.082 -166.3802
887.568689 76.133 -165.3846
894.000378 76.189 -164.4355
900.478673 76.251 -163.5290
907.003913 76.317 -162.6618
913.576437 76.388 -161.8325
920.196588 76.464 -161.0412
926.864712 76.545 -160.2901
933.581156 76.631 -159.5827
940.346270 76.722 -158.9235
947.160407 76.817 -158.3170
954.023921 76.916 -157.7672
960.937172 77.017 -157.2764
967.900519 77.119 -156.8456
974.914325 77.222 -156.4736
981.978956 77.323 -156.1575
989.094780 77.423 -155.8928
996.262169 77.519 -155.6732
1003.481495 77.611 -155.4915
1010.753136 77.699 -155.3396
1018.077470 77.783 -155.2093
1025.454879 77.862 -155.0922
1032.885748 77.938 -154.9810
1040.370463 78.009 -154.8692
1047.909417 78.077 -154.7516
1055.503000 78.143 -154.6249
1063.151610 78.207 -154.4881
1070.855645 78.270 -154.3424
1078.615506 78.332 -154.1910
1086.431599 78.393 -154.0389
1094.304330 78.453 -153.8913
1102.234110 78.511 -153.7528
1110.221353 78.567 -153.6261
1118.266475 78.618 -153.5112
1126.369895 78.664 -153.4047
1134.532035 78.704 -153.2999
1142.753322 78.737 -153.1873
1151.034184 78.763 -153.0549
1159.375052 78.783 -152.8900
1167.776361 78.797 -152.6800
1176.238550 78.807 -152.4137
1184.762060 78.815 -152.0833
1193.347334 78.824 -151.6853
1201.994821 78.835 -151.2212
1210.704971 78.852 -150.6983
1219.478238 78.877 -150.1282
1228.315080 78.909 -149.5258
1237.215957 78.951 -148.9076
1246.181334 79.001 -148.2892
1255.211678 79.058 -147.6841
1264.307459 79.122 -147.1021
1273.469152 79.191 -146.5487
1282.697235 79.262 -146.0252
1291.992188 79.336 -145.5290
1301.354495 79.411 -145.0548
1310.784647 79.487 -144.5963
1320.283132 79.565 -144.1480
1329.850448 79.644 -143.7073
1339.487093 79.728 -143.2758
1349.193569 79.815 -142.8598
1358.970381 79.907 -142.4696
1368.818041 80.003 -142.1174
1378.737061 80.103 -141.8153
1388.727958 80.205 -141.5738
1398.791253 80.309 -141.4006
1408.927471 80.411 -141.3004
1419.137140 80.511 -141.2753
1429.420793 80.606 -141.3250
1439.778965 80.695 -141.4472
1450.212197 80.775 -141.6375
1460.721033 80.845 -141.8897
1471.306019 80.902 -142.1956
1481.967709 80.946 -142.5447
1492.706658 80.973 -142.9241
1503.523426 80.984 -143.3184
1514.418576 80.975 -143.7095
1525.392678 80.946 -144.0766
1536.446302 80.896 -144.3956
1547.580025 80.825 -144.6397
1558.794428 80.732 -144.7796
1570.090095 80.621 -144.7849
1581.467615 80.492 -144.6261
1592.927581 80.350 -144.2776
1604.470591 80.200 -143.7204
1616.097246 80.045 -142.9448
1627.808153 79.893 -141.9511
1639.603922 79.749 -140.7495
1651.485168 79.616 -139.3598
1663.452510 79.501 -137.8103
1675.506573 79.405 -136.1364
1687.647984 79.332 -134.3790
1699.877377 79.282 -132.5817
1712.195390 79.256 -130.7872
1724.602663 79.251 -129.0339
1737.099845 79.264 -127.3531
1749.687587 79.293 -125.7672
1762.366544 79.333 -124.2890
1775.137379 79.380 -122.9225
1788.000756 79.431 -121.6641
1800.957346 79.483 -120.5038
1814.007826 79.533 -119.4275
1827.152874 79.579 -118.4193
1840.393177 79.620 -117.4641
1853.729425 79.657 -116.5498
1867.162312 79.688 -115.6681
1880.692540 79.714 -114.8143
1894.320813 79.734 -113.9849
1908.047843 79.749 -113.1761
1921.874344 79.757 -112.3831
1935.801038 79.759 -111.6004
1949.828650 79.755 -110.8235
1963.957912 79.746 -110.0499
1978.189561 79.731 -109.2793
1992.524338 79.711 -108.5131
2006.962991 79.687 -107.7529
2021.506272 79.657 -106.9988
2036.154940 79.621 -106.2484
2050.909758 79.579 -105.4961
2065.771495 79.532 -104.7347
2080.740927 79.479 -103.9568
2095.818833 79.421 -103.1567
2111.006001 79.361 -102.3321
2126.303220 79.298 -101.4838
2141.711290 79.234 -100.6159
2157.231013 79.170 -99.7333
2172.863198 79.106 -98.8410
2188.608660 79.043 -97.9435
2204.468221 78.981 -97.0443
2220.442706 78.919 -96.1477
2236.532950 78.858 -95.2583
2252.739789 78.797 -94.3821
2269.064070 78.737 -93.5248
2285.506644 78.676 -92.6918
2302.068367 78.613 -91.8868
2318.750104 78.547 -91.1113
2335.552723 78.477 -90.3645
2352.477101 78.401 -89.6431
2369.524119 78.317 -88.9407
2386.694668 78.224 -88.2475
2403.989641 78.121 -87.5508
2421.409941 78.006 -86.8342
2438.956476 77.879 -86.0786
2456.630160 77.738 -85.2617
2474.431915 77.585 -84.3575
2492.362668 77.419 -83.3348
2510.423356 77.242 -82.1556
2528.614918 77.054 -80.7743
2546.938304 76.860 -79.1391
2565.394469 76.665 -77.1968
2583.984375 76.476 -74.9021
2602.708991 76.304 -72.2304
2621.569293 76.160 -69.1906
2640.566265 76.053 -65.8345
2659.700897 75.993 -62.2548
2678.974186 75.983 -58.5714
2698.387137 76.024 -54.9077
2717.940763 76.111 -51.3688
2737.636082 76.237 -48.0262
2757.474121 76.395 -44.9152
2777.455915 76.578 -42.0418
2797.582506 76.777 -39.3924
2817.854942 76.989 -36.9457
2838.274281 77.209 -34.6798
2858.841586 77.434 -32.5766
2879.557931 77.661 -30.6232
2900.424394 77.886 -28.8085
2921.442065 78.107 -27.1213
2942.612039 78.321 -25.5465
2963.935418 78.526 -24.0642
2985.413316 78.720 -22.6503
3007.046852 78.902 -21.2785
3028.837153 79.074 -19.9236
3050.785356 79.235 -18.5652
3072.892604 79.389 -17.1901
3095.160050 79.537 -15.7943
3117.588856 79.682 -14.3831
3140.180190 79.823 -12.9692
3162.935230 79.962 -11.5690
3185.855163 80.098 -10.2001
3208.941182 80.231 -8.8784
3232.194493 80.359 -7.6173
3255.616307 80.481 -6.4279
3279.207844 80.595 -5.3190
3302.970336 80.699 -4.2975
3326.905021 80.791 -3.3678
3351.013146 80.869 -2.5308
3375.295969 80.929 -1.7820
3399.754755 80.968 -1.1095
3424.390779 80.984 -0.4922
3449.205326 80.973 0.1004
3474.199690 80.932 0.7093
3499.375173 80.861 1.3849
3524.733088 80.760 2.1864
3550.274757 80.629 3.1788
3576.001511 80.475 4.4276
3601.914692 80.303 5.9901
3628.015651 80.123 7.9047
3654.305748 79.945 10.1796
3680.786354 79.782 12.7876
3707.458849 79.642 15.6701
3734.324624 79.533 18.7507
3761.385080 79.460 21.9522
3788.641627 79.423 25.2100
3816.095686 79.424 28.4747
3843.748688 79.461 31.7077
3871.602076 79.534 34.8742
3899.657300 79.639 37.9403
3927.915825 79.774 40.8746
3956.379122 79.933 43.6535
3985.048676 80.113 46.2634
4013.925981 80.308 48.6995
4043.012544 80.514 50.9627
4072.309879 80.726 53.0564
4101.819515 80.940 54.9852
4131.542990 81.153 56.7571
4161.481854 81.358 58.3858
4191.637667 81.555 59.8917
4222.012001 81.738 61.2997
4252.606441 81.908 62.6354
4283.422580 82.064 63.9211
4314.462026 82.205 65.1737
4345.726396 82.331 66.4059
4377.217321 82.442 67.6286
4408.936442 82.537 68.8536
4440.885413 82.618 70.0942
4473.065899 82.683 71.3638
4505.479579 82.734 72.6740
4538.128141 82.773 74.0327
4571.013288 82.800 75.4443
4604.136735 82.818 76.9099
4637.500207 82.827 78.4292
4671.105446 82.828 80.0010
4704.954201 82.822 81.6246
4739.048239 82.810 83.3002
4773.389336 82.793 85.0293
4807.979283 82.771 86.8146
4842.819883 82.745 88.6605
4877.912952 82.716 90.5722
4913.260320 82.686 92.5554
4948.863830 82.657 94.6152
4984.725337 82.629 96.7556
5020.846712 82.606 98.9770
5057.229836 82.589 101.2754
5093.876609 82.581 103.6424
5130.788938 82.582 106.0662
5167.968750 82.594 108.5350
5205.417982 82.618 111.0400
5243.138586 82.653 113.5765
5281.132530 82.700 116.1427
5319.401793 82.760 118.7374
5357.948371 82.834 121.3572
5396.774274 82.922 123.9960
5435.881525 83.027 126.6448
5475.272163 83.147 129.2918
5514.948243 83.284 131.9210
5554.911831 83.438 134.5097
5595.165012 83.608 137.0270
5635.709884 83.794 139.4352
5676.548561 83.991 141.6943
5717.683172 84.196 143.7688
5759.115861 84.405 145.6334
5800.848789 84.611 147.2740
5842.884130 84.810 148.6867
5885.224077 84.997 149.8743
5927.870837 85.167 150.8447
5970.826633 85.316 151.6102
6014.093704 85.440 152.1859
6057.674306 85.536 152.5896
6101.570711 85.600 152.8404
6145.785208 85.629 152.9590
6190.320101 85.620 152.9675
6235.177712 85.570 152.8911
6280.360380 85.476 152.7581
6325.870460 85.336 152.6020
6371.710325 85.147 152.4611
6417.882365 84.908 152.3788
6464.388986 84.618 152.4015
6511.232613 84.278 152.5762
6558.415689 83.889 152.9474
6605.940673 83.455 153.5530
6653.810042 82.979 154.4219
6702.026292 82.465 155.5731
6750.591937 81.916 157.0195
6799.509509 81.336 158.7742
6848.781558 80.727 160.8547
6898.410653 80.092 163.2867
6948.399380 79.433 166.1056
6998.750346 78.753 169.3587
7049.466176 78.055 173.1071
7100.549514 77.345 177.4267
7152.003023 76.629 -177.5891
7203.829385 75.913 -171.8273
7256.031302 75.207 -165.1542
7308.611496 74.522 -157.4199
7361.572708 73.874 -148.4783
7414.917698 73.277 -138.2364
7468.649249 72.749 -126.7442
7522.770160 72.307 -114.3134
7577.283253 71.967 -101.5706
7632.191371 71.740 -89.3279
7687.497376 71.628 -78.3006
7743.204151 71.627 -68.8932
7799.314600 71.722 -61.1908
7855.831649 71.895 -55.0749
7912.758244 72.127 -50.3417
7970.097352 72.402 -46.7734
8027.851962 72.705 -44.1670
8086.025087 73.031 -42.3352
8144.619758 73.378 -41.0844
8203.639030 73.748 -40.1530
8263.085980 74.147 -38.9919
8322.963708 74.582 -35.3432
8383.275334 75.056 33.6479
8444.024002 75.568 123.3278
8505.212881 76.110 126.6632
8566.845160 76.671 126.6650
8628.924051 77.235 125.8832
8691.452792 77.787 124.8873
8754.434642 78.315 123.9113
8817.872884 78.811 123.0857
8881.770826 79.271 122.4933
8946.131799 79.694 122.1853
9010.959157 80.083 122.1870
9076.256282 80.441 122.5020
9142.026576 80.772 123.1165
9208.273470 81.079 124.0032
9275.000415 81.363 125.1290
9342.210891 81.624 126.4625
9409.908403 81.862 127.9814
9478.096478 82.075 129.6792
9546.778672 82.262 131.5693
9615.958566 82.424 133.6879
9685.639765 82.563 136.0907
9755.825904 82.685 138.8418
9826.520640 82.799 141.9917
9897.727659 82.918 145.5471
9969.450674 83.055 149.4469
10041.693423 83.220 153.5582
10114.459673 83.419 157.6957
10187.753217 83.650 161.6588
10261.577877 83.907 165.2698
10335.937500 84.179 168.4012
10410.835964 84.452 170.9846
10486.277173 84.711 173.0049
10562.265060 84.943 174.4886
10638.803587 85.133 175.4924
10715.896743 85.270 176.0932
10793.548548 85.343 176.3817
10871.763050 85.348 176.4565
10950.544327 85.278 176.4193
11029.896485 85.133 176.3695
11109.823662 84.914 176.4008
11190.330024 84.624 176.5973
11271.419768 84.268 177.0320
11353.097122 83.853 177.7659
11435.366344 83.384 178.8482
11518.231722 82.869 -179.6824
11601.697577 82.315 -177.7977
11685.768261 81.730 -175.4823
11770.448155 81.122 -172.7375
11855.741674 80.498 -169.5897
11941.653265 79.868 -166.0982
12028.187408 79.241 -162.3613
12115.348612 78.626 -158.5169
12203.141422 78.034 -154.7356
12291.570415 77.473 -151.2074
12380.640201 76.952 -148.1254
12470.355424 76.478 -145.6711
12560.720760 76.055 -144.0042
12651.740920 75.685 -143.2583
12743.420650 75.367 -143.5399
12835.764729 75.094 -144.9283
12928.777972 74.857 -147.4732
13022.465227 74.646 -151.1854
13116.831378 74.448 -156.0206
13211.881345 74.251 -161.8569
13307.620084 74.046 -168.4738
13404.052584 73.829 -175.5499
13501.183875 73.596 177.3049
13599.019019 73.349 170.4868
13697.563116 73.092 164.3306
13796.821305 72.829 159.0657
13896.798760 72.566 154.8120
13997.500692 72.310 151.6002
14098.932352 72.065 149.4026
14201.099028 71.833 148.1592
14304.006046 71.618 147.7957
14407.658770 71.418 148.2349
14512.062604 71.234 149.4025
14617.222992 71.065 151.2302
14723.145416 70.908 153.6576
14829.835397 70.763 156.6341
14937.298497 70.629 160.1204
15045.540320 70.506 164.0896
15154.566507 70.396 168.5251
15264.382743 70.301 173.4156
15374.994752 70.227 178.7454
15486.408302 70.180 -175.5156
15598.629201 70.166 -169.4206
15711.663298 70.194 -163.0505
15825.516487 70.269 -156.5151
15940.194703 70.396 -149.9529
16055.703925 70.581 -143.5266
16172.050174 70.822 -137.4169
16289.239516 71.118 -131.8051
16407.278061 71.463 -126.8518
16526.171961 71.845 -122.6756
16645.927415 72.252 -119.3420
16766.550667 72.670 -116.8622
16888.048005 73.086 -115.2016
17010.425762 73.488 -114.2905
17133.690320 73.871 -114.0353
17257.848103 74.231 -114.3284
17382.905584 74.574 -115.0569
17508.869284 74.910 -116.1132
17635.745768 75.253 -117.4079
17763.541652 75.621 -118.8862
17892.263597 76.029 -120.5468
18021.918315 76.487 -122.4579
18152.512564 76.994 -124.7631
18284.053153 77.538 -127.6684
18416.546939 78.101 -131.4108
18550.000830 78.661 -136.2233
18684.421783 79.198 -142.3054
18819.816805 79.694 -149.8038
18956.192956 80.138 -158.7817
19093.557344 80.520 -169.1501
19231.917131 80.839 179.4471
19371.279531 81.093 167.7325
19511.651807 81.287 156.7400
19653.041280 81.425 147.5548
19795.455318 81.512 141.0251
19938.901348 81.555 137.6542
