* Measurement data measured by REW V5.31.3
* Source: EXCL: Headset (USB-C to 3.5mm Headphone Jack Adapter), MICROPHONE (Master Volume), 0, volume: 0.750
* Format: 256k Log Swept Sine, 1 sweep at -12.0 dBFS with no timing reference
* Dated: Apr 7, 2025 4:58:59 PM
* REW Settings:
*  C-weighting compensation: Off
*  Target level: 75.0 dB
* Note: ; 
* Measurement: Maxwell (Wired) R1
* Smoothing: 1/6 octave
* Frequency Step: 96 ppo
* Start Frequency: 20.0 Hz
*
* Freq(Hz) SPL(dB) Phase(degrees)
20.187378 79.981 -5.9012
20.333664 79.998 -6.0706
20.481010 80.019 -6.3129
20.629424 80.044 -6.6417
20.778913 80.070 -7.0738
20.929486 80.094 -7.6286
21.081150 80.117 -8.3278
21.233912 80.139 -9.1933
21.387782 80.159 -10.2462
21.542767 80.180 -11.5049
21.698874 80.206 -12.9820
21.856113 80.240 -14.6822
22.014492 80.287 -16.5987
22.174018 80.353 -18.7108
22.334700 80.443 -20.9825
22.496546 80.559 -23.3621
22.659566 80.705 -25.7865
22.823766 80.880 -28.1857
22.989157 81.081 -30.4912
23.155745 81.304 -32.6429
23.323542 81.543 -34.5956
23.492554 81.791 -36.3220
23.662790 82.041 -37.8138
23.834261 82.287 -39.0795
24.006973 82.521 -40.1414
24.180938 82.740 -41.0325
24.356163 82.939 -41.7927
24.532658 83.116 -42.4656
24.710431 83.267 -43.0962
24.889493 83.393 -43.7287
25.069853 83.492 -44.4041
25.251519 83.567 -45.1589
25.434502 83.619 -46.0237
25.618811 83.650 -47.0211
25.804456 83.665 -48.1654
25.991445 83.667 -49.4614
26.179790 83.661 -50.9039
26.369500 83.653 -52.4784
26.560584 83.647 -54.1624
26.753053 83.649 -55.9270
26.946917 83.660 -57.7398
27.142185 83.684 -59.5684
27.338869 83.720 -61.3830
27.536977 83.767 -63.1586
27.736522 83.820 -64.8764
27.937512 83.875 -66.5237
28.139959 83.928 -68.0930
28.343872 83.975 -69.5811
28.549264 84.010 -70.9880
28.756143 84.034 -72.3164
28.964522 84.044 -73.5712
29.174411 84.042 -74.7601
29.385821 84.030 -75.8936
29.598763 84.012 -76.9853
29.813248 83.992 -78.0510
30.029287 83.972 -79.1076
30.246891 83.955 -80.1705
30.466073 83.943 -81.2517
30.686842 83.937 -82.3574
30.909212 83.934 -83.4872
31.133193 83.935 -84.6342
31.358797 83.937 -85.7866
31.586035 83.941 -86.9303
31.814921 83.946 -88.0520
32.045465 83.953 -89.1418
32.277680 83.964 -90.1953
32.511577 83.979 -91.2139
32.747169 84.000 -92.2040
32.984469 84.028 -93.1749
33.223488 84.062 -94.1358
33.464239 84.102 -95.0933
33.706735 84.147 -96.0498
33.950987 84.196 -97.0026
34.197010 84.249 -97.9453
34.444816 84.305 -98.8696
34.694417 84.365 -99.7675
34.945827 84.429 -100.6341
35.199059 84.498 -101.4684
35.454126 84.571 -102.2741
35.711041 84.648 -103.0581
35.969818 84.726 -103.8292
36.230470 84.805 -104.5958
36.493011 84.883 -105.3640
36.757455 84.958 -106.1366
37.023814 85.028 -106.9130
37.292104 85.093 -107.6896
37.562338 85.154 -108.4610
37.834530 85.212 -109.2216
38.108695 85.268 -109.9672
38.384846 85.324 -110.6953
38.662999 85.381 -111.4064
38.943167 85.441 -112.1031
39.225365 85.505 -112.7903
39.509608 85.573 -113.4736
39.795911 85.644 -114.1589
40.084289 85.718 -114.8521
40.374756 85.794 -115.5582
40.667328 85.872 -116.2819
40.962020 85.950 -117.0272
41.258848 86.028 -117.7974
41.557827 86.105 -118.5951
41.858972 86.180 -119.4218
42.162299 86.254 -120.2777
42.467824 86.325 -121.1619
42.775564 86.392 -122.0727
43.085533 86.456 -123.0087
43.397749 86.516 -123.9688
43.712227 86.571 -124.9536
44.028983 86.622 -125.9651
44.348036 86.669 -127.0069
44.669400 86.712 -128.0831
44.993093 86.751 -129.1977
45.319131 86.787 -130.3535
45.647532 86.820 -131.5514
45.978313 86.850 -132.7899
46.311491 86.877 -134.0652
46.647083 86.901 -135.3712
46.985107 86.920 -136.7003
47.325581 86.935 -138.0441
47.668521 86.943 -139.3945
48.013947 86.943 -140.7444
48.361876 86.934 -142.0884
48.712326 86.915 -143.4229
49.065315 86.884 -144.7456
49.420863 86.842 -146.0555
49.778987 86.787 -147.3515
50.139706 86.721 -148.6325
50.503039 86.643 -149.8961
50.869005 86.555 -151.1384
51.237623 86.457 -152.3534
51.608912 86.351 -153.5330
51.982891 86.237 -154.6671
52.359580 86.118 -155.7458
52.739000 85.994 -156.7606
53.121168 85.867 -157.7069
53.506106 85.738 -158.5844
53.893833 85.607 -159.3969
54.284370 85.476 -160.1510
54.677737 85.345 -160.8531
55.073955 85.212 -161.5080
55.473043 85.079 -162.1175
55.875024 84.944 -162.6802
56.279917 84.808 -163.1921
56.687745 84.671 -163.6484
57.098527 84.533 -164.0454
57.512287 84.393 -164.3829
57.929045 84.253 -164.6665
58.348822 84.115 -164.9092
58.771642 83.982 -165.1324
59.197525 83.858 -165.3630
59.626495 83.747 -165.6291
60.058573 83.651 -165.9525
60.493782 83.570 -166.3425
60.932145 83.504 -166.7927
61.373685 83.449 -167.2842
61.818424 83.403 -167.7913
62.266386 83.362 -168.2900
62.717593 83.325 -168.7628
63.172071 83.290 -169.2003
63.629842 83.256 -169.5991
64.090930 83.222 -169.9592
64.555359 83.189 -170.2812
65.023154 83.157 -170.5662
65.494339 83.126 -170.8155
65.968938 83.097 -171.0317
66.446976 83.070 -171.2194
66.928478 83.045 -171.3848
67.413469 83.022 -171.5345
67.901975 83.001 -171.6748
68.394021 82.982 -171.8106
68.889632 82.965 -171.9452
69.388835 82.948 -172.0806
69.891655 82.933 -172.2181
70.398118 82.917 -172.3581
70.908252 82.903 -172.5001
71.422083 82.889 -172.6429
71.939636 82.875 -172.7850
72.460941 82.862 -172.9252
72.986023 82.848 -173.0631
73.514909 82.834 -173.1993
74.047629 82.818 -173.3353
74.584208 82.800 -173.4732
75.124676 82.780 -173.6153
75.669061 82.758 -173.7644
76.217390 82.734 -173.9230
76.769692 82.709 -174.0934
77.325997 82.683 -174.2769
77.886333 82.656 -174.4739
78.450730 82.628 -174.6839
79.019216 82.601 -174.9062
79.591822 82.573 -175.1400
80.168577 82.546 -175.3843
80.749512 82.519 -175.6381
81.334656 82.492 -175.9006
81.924040 82.465 -176.1710
82.517696 82.438 -176.4485
83.115653 82.409 -176.7323
83.717943 82.380 -177.0212
84.324598 82.349 -177.3138
84.935649 82.316 -177.6080
85.551128 82.282 -177.9018
86.171066 82.246 -178.1930
86.795497 82.208 -178.4800
87.424453 82.168 -178.7620
88.057967 82.126 -179.0390
88.696071 82.082 -179.3114
89.338800 82.037 -179.5796
89.986185 81.990 -179.8443
90.638262 81.942 179.8943
91.295065 81.893 179.6365
91.956626 81.843 179.3824
92.622982 81.793 179.1327
93.294166 81.743 178.8882
93.970214 81.693 178.6500
94.651161 81.643 178.4188
95.337042 81.593 178.1953
96.027894 81.543 177.9798
96.723752 81.493 177.7722
97.424652 81.444 177.5727
98.130631 81.395 177.3819
98.841726 81.346 177.2014
99.557974 81.297 177.0334
100.279412 81.249 176.8805
101.006078 81.202 176.7452
101.738010 81.154 176.6290
102.475245 81.107 176.5317
103.217823 81.061 176.4509
103.965782 81.015 176.3818
104.719161 80.969 176.3167
105.477999 80.925 176.2466
106.242336 80.882 176.1633
107.012212 80.841 176.0615
107.787666 80.802 175.9406
108.568740 80.767 175.8041
109.355474 80.734 175.6584
110.147909 80.706 175.5102
110.946086 80.680 175.3652
111.750047 80.659 175.2276
112.559834 80.640 175.0989
113.375489 80.624 174.9791
114.197055 80.611 174.8663
115.024574 80.600 174.7582
115.858089 80.591 174.6524
116.697645 80.583 174.5471
117.543284 80.575 174.4412
118.395051 80.568 174.3338
119.252990 80.561 174.2243
120.117147 80.554 174.1119
120.987565 80.547 173.9956
121.864291 80.539 173.8739
122.747370 80.532 173.7452
123.636848 80.525 173.6076
124.532771 80.518 173.4593
125.435187 80.510 173.2983
126.344142 80.503 173.1232
127.259684 80.495 172.9329
128.181860 80.487 172.7274
129.110718 80.476 172.5073
130.046308 80.465 172.2747
130.988677 80.451 172.0322
131.937875 80.434 171.7826
132.893951 80.415 171.5283
133.856956 80.392 171.2704
134.826938 80.366 171.0093
135.803950 80.336 170.7439
136.788041 80.302 170.4729
137.779264 80.264 170.1948
138.777669 80.221 169.9089
139.783309 80.174 169.6160
140.796237 80.122 169.3178
141.816504 80.064 169.0175
142.844165 80.001 168.7191
143.879273 79.934 168.4268
144.921881 79.862 168.1454
145.972045 79.785 167.8793
147.029819 79.704 167.6327
148.095257 79.619 167.4086
149.168417 79.531 167.2092
150.249353 79.439 167.0361
151.338121 79.344 166.8899
152.434780 79.247 166.7712
153.539385 79.147 166.6810
154.651995 79.046 166.6201
155.772667 78.944 166.5900
156.901460 78.840 166.5919
158.038432 78.736 166.6273
159.183644 78.631 166.6971
160.337154 78.527 166.8023
161.499023 78.425 166.9431
162.669312 78.324 167.1191
163.848081 78.225 167.3297
165.035392 78.130 167.5738
166.231306 78.038 167.8504
167.435887 77.950 168.1585
168.649196 77.867 168.4970
169.871298 77.789 168.8647
171.102255 77.715 169.2601
172.342133 77.647 169.6816
173.590995 77.584 170.1271
174.848907 77.525 170.5943
176.115934 77.470 171.0805
177.392143 77.418 171.5831
178.677599 77.369 172.0992
179.972371 77.321 172.6258
181.276525 77.276 173.1603
182.590129 77.232 173.6997
183.913252 77.191 174.2411
185.245964 77.153 174.7818
186.588332 77.120 175.3191
187.940428 77.092 175.8499
189.302322 77.070 176.3707
190.674085 77.052 176.8779
192.055788 77.038 177.3681
193.447503 77.028 177.8395
194.849303 77.022 178.2920
196.261262 77.017 178.7262
197.683452 77.015 179.1428
199.115948 77.013 179.5420
200.558824 77.012 179.9226
202.012156 77.012 -179.7166
203.476019 77.013 -179.3767
204.950490 77.013 -179.0574
206.435646 77.015 -178.7559
207.931564 77.016 -178.4678
209.438322 77.018 -178.1885
210.955998 77.021 -177.9139
212.484672 77.023 -177.6419
214.024424 77.027 -177.3717
215.575333 77.032 -177.1032
217.137481 77.037 -176.8365
218.710948 77.044 -176.5717
220.295818 77.053 -176.3085
221.892172 77.063 -176.0464
223.500094 77.075 -175.7851
225.119668 77.089 -175.5241
226.750978 77.105 -175.2634
228.394109 77.123 -175.0029
230.049147 77.142 -174.7427
231.716178 77.162 -174.4833
233.395289 77.184 -174.2258
235.086567 77.207 -173.9724
236.790102 77.233 -173.7251
238.505980 77.261 -173.4861
240.234293 77.292 -173.2564
241.975130 77.326 -173.0357
243.728581 77.363 -172.8223
245.494739 77.403 -172.6134
247.273695 77.445 -172.4060
249.065542 77.489 -172.1969
250.870374 77.535 -171.9839
252.688284 77.582 -171.7652
254.519367 77.630 -171.5404
256.363720 77.679 -171.3105
258.221437 77.728 -171.0783
260.092616 77.778 -170.8480
261.977354 77.829 -170.6243
263.875750 77.880 -170.4115
265.787903 77.931 -170.2126
267.713911 77.981 -170.0295
269.653877 78.032 -169.8630
271.607900 78.083 -169.7128
273.576083 78.134 -169.5782
275.558528 78.185 -169.4579
277.555338 78.237 -169.3502
279.566619 78.291 -169.2535
281.592474 78.345 -169.1665
283.633009 78.401 -169.0887
285.688331 78.458 -169.0195
287.758546 78.517 -168.9589
289.843763 78.577 -168.9072
291.944090 78.638 -168.8651
294.059638 78.700 -168.8334
296.190515 78.762 -168.8129
298.336833 78.824 -168.8041
300.498705 78.886 -168.8075
302.676243 78.948 -168.8231
304.869559 79.009 -168.8504
307.078770 79.070 -168.8884
309.303989 79.131 -168.9359
311.545334 79.191 -168.9918
313.802919 79.251 -169.0551
316.076865 79.310 -169.1253
318.367288 79.368 -169.2022
320.674309 79.426 -169.2863
322.998047 79.482 -169.3783
325.338624 79.537 -169.4792
327.696162 79.592 -169.5898
330.070783 79.645 -169.7106
332.462612 79.696 -169.8416
334.871773 79.746 -169.9825
337.298392 79.795 -170.1327
339.742595 79.842 -170.2912
342.204510 79.887 -170.4572
344.684265 79.930 -170.6300
347.181989 79.971 -170.8090
349.697813 80.010 -170.9939
352.231868 80.047 -171.1842
354.784285 80.082 -171.3801
357.355198 80.115 -171.5815
359.944741 80.145 -171.7887
362.553049 80.173 -172.0014
365.180258 80.200 -172.2199
367.826505 80.224 -172.4437
370.491927 80.246 -172.6726
373.176665 80.266 -172.9060
375.880856 80.284 -173.1434
378.604644 80.300 -173.3844
381.348169 80.314 -173.6289
384.111575 80.326 -173.8764
386.895006 80.336 -174.1264
389.698607 80.344 -174.3784
392.522524 80.350 -174.6315
395.366904 80.353 -174.8849
398.231895 80.354 -175.1373
401.117648 80.351 -175.3875
404.024312 80.346 -175.6339
406.952038 80.337 -175.8743
409.900981 80.324 -176.1068
412.871292 80.308 -176.3291
415.863128 80.289 -176.5387
418.876643 80.267 -176.7336
421.911996 80.241 -176.9119
424.969344 80.213 -177.0722
428.048847 80.183 -177.2138
431.150666 80.152 -177.3367
434.274961 80.121 -177.4418
437.421897 80.089 -177.5310
440.591636 80.058 -177.6073
443.784345 80.028 -177.6743
447.000189 79.999 -177.7365
450.239337 79.972 -177.7986
453.501956 79.947 -177.8648
456.788219 79.922 -177.9390
460.098294 79.899 -178.0238
463.432356 79.878 -178.1210
466.790578 79.856 -178.2312
470.173135 79.835 -178.3540
473.580203 79.814 -178.4884
477.011961 79.793 -178.6329
480.468586 79.772 -178.7859
483.950259 79.751 -178.9454
487.457163 79.730 -179.1100
490.989478 79.708 -179.2785
494.547390 79.687 -179.4498
498.131084 79.666 -179.6236
501.740748 79.644 -179.7996
505.376568 79.624 -179.9779
509.038735 79.603 179.8411
512.727439 79.584 179.6569
516.442874 79.565 179.4690
520.185232 79.546 179.2769
523.954708 79.528 179.0804
527.751500 79.511 178.8796
531.575805 79.494 178.6749
535.427822 79.478 178.4669
539.307753 79.463 178.2565
543.215800 79.448 178.0445
547.152165 79.433 177.8316
551.117055 79.419 177.6185
555.110677 79.404 177.4061
559.133237 79.388 177.1952
563.184947 79.371 176.9872
567.266018 79.354 176.7834
571.376661 79.335 176.5857
575.517092 79.314 176.3956
579.687526 79.292 176.2146
583.888181 79.269 176.0443
588.119275 79.244 175.8857
592.381030 79.217 175.7399
596.673667 79.189 175.6077
600.997410 79.159 175.4896
605.352485 79.128 175.3862
609.739119 79.096 175.2976
614.157540 79.062 175.2240
618.607979 79.027 175.1648
623.090667 78.991 175.1193
627.605839 78.954 175.0862
632.153730 78.917 175.0637
636.734576 78.878 175.0494
641.348617 78.839 175.0408
645.996094 78.799 175.0350
650.677248 78.758 175.0292
655.392323 78.716 175.0210
660.141566 78.672 175.0082
664.925224 78.626 174.9894
669.743546 78.577 174.9644
674.596784 78.526 174.9336
679.485191 78.471 174.8984
684.409020 78.413 174.8614
689.368530 78.350 174.8256
694.363979 78.282 174.7950
699.395626 78.209 174.7742
704.463736 78.131 174.7682
709.568570 78.047 174.7824
714.710396 77.958 174.8224
719.889483 77.864 174.8941
725.106099 77.764 175.0034
730.360516 77.659 175.1560
735.653010 77.551 175.3575
740.983855 77.439 175.6125
746.353329 77.324 175.9249
751.761713 77.208 176.2972
757.209288 77.092 176.7308
762.696339 76.976 177.2257
768.223151 76.862 177.7809
773.790013 76.751 178.3943
779.397214 76.645 179.0628
785.045047 76.544 179.7825
790.733808 76.450 -179.4513
796.463791 76.364 -178.6446
802.235296 76.286 -177.8043
808.048623 76.218 -176.9381
813.904077 76.160 -176.0550
819.801961 76.113 -175.1639
825.742584 76.077 -174.2741
831.726255 76.051 -173.3942
837.753287 76.036 -172.5320
843.823992 76.030 -171.6940
849.938689 76.033 -170.8853
856.097695 76.045 -170.1099
862.301332 76.064 -169.3702
868.549922 76.089 -168.6679
874.843793 76.120 -168.0033
881.183272 76.156 -167.3761
887.568689 76.196 -166.7854
894.000378 76.239 -166.2294
900.478673 76.286 -165.7058
907.003913 76.335 -165.2119
913.576437 76.386 -164.7445
920.196588 76.440 -164.3007
926.864712 76.496 -163.8779
933.581156 76.556 -163.4737
940.346270 76.618 -163.0866
947.160407 76.684 -162.7158
954.023921 76.753 -162.3612
960.937172 76.828 -162.0237
967.900519 76.906 -161.7050
974.914325 76.990 -161.4075
981.978956 77.078 -161.1343
989.094780 77.171 -160.8889
996.262169 77.269 -160.6748
1003.481495 77.371 -160.4954
1010.753136 77.476 -160.3536
1018.077470 77.585 -160.2517
1025.454879 77.696 -160.1914
1032.885748 77.808 -160.1737
1040.370463 77.921 -160.1988
1047.909417 78.035 -160.2666
1055.503000 78.147 -160.3762
1063.151610 78.258 -160.5268
1070.855645 78.367 -160.7170
1078.615506 78.472 -160.9456
1086.431599 78.574 -161.2112
1094.304330 78.672 -161.5123
1102.234110 78.764 -161.8473
1110.221353 78.850 -162.2141
1118.266475 78.929 -162.6102
1126.369895 79.000 -163.0321
1134.532035 79.062 -163.4747
1142.753322 79.114 -163.9316
1151.034184 79.156 -164.3941
1159.375052 79.185 -164.8514
1167.776361 79.203 -165.2908
1176.238550 79.210 -165.6979
1184.762060 79.206 -166.0578
1193.347334 79.192 -166.3555
1201.994821 79.170 -166.5773
1210.704971 79.142 -166.7117
1219.478238 79.112 -166.7500
1228.315080 79.081 -166.6875
1237.215957 79.054 -166.5232
1246.181334 79.032 -166.2609
1255.211678 79.019 -165.9084
1264.307459 79.018 -165.4779
1273.469152 79.030 -164.9851
1282.697235 79.057 -164.4483
1291.992188 79.099 -163.8879
1301.354495 79.157 -163.3242
1310.784647 79.230 -162.7770
1320.283132 79.317 -162.2641
1329.850448 79.416 -161.8007
1339.487093 79.525 -161.3992
1349.193569 79.643 -161.0688
1358.970381 79.768 -160.8158
1368.818041 79.897 -160.6439
1378.737061 80.029 -160.5546
1388.727958 80.163 -160.5474
1398.791253 80.296 -160.6202
1408.927471 80.427 -160.7699
1419.137140 80.556 -160.9924
1429.420793 80.680 -161.2833
1439.778965 80.800 -161.6375
1450.212197 80.913 -162.0494
1460.721033 81.019 -162.5131
1471.306019 81.117 -163.0216
1481.967709 81.205 -163.5674
1492.706658 81.282 -164.1414
1503.523426 81.348 -164.7337
1514.418576 81.401 -165.3326
1525.392678 81.441 -165.9252
1536.446302 81.467 -166.4972
1547.580025 81.480 -167.0338
1558.794428 81.480 -167.5198
1570.090095 81.469 -167.9410
1581.467615 81.447 -168.2854
1592.927581 81.417 -168.5440
1604.470591 81.382 -168.7123
1616.097246 81.343 -168.7906
1627.808153 81.305 -168.7841
1639.603922 81.268 -168.7023
1651.485168 81.235 -168.5577
1663.452510 81.206 -168.3648
1675.506573 81.183 -168.1384
1687.647984 81.165 -167.8924
1699.877377 81.153 -167.6394
1712.195390 81.146 -167.3900
1724.602663 81.144 -167.1533
1737.099845 81.144 -166.9362
1749.687587 81.148 -166.7440
1762.366544 81.153 -166.5805
1775.137379 81.158 -166.4474
1788.000756 81.164 -166.3454
1800.957346 81.167 -166.2736
1814.007826 81.168 -166.2305
1827.152874 81.166 -166.2137
1840.393177 81.159 -166.2202
1853.729425 81.147 -166.2464
1867.162312 81.129 -166.2874
1880.692540 81.104 -166.3373
1894.320813 81.072 -166.3889
1908.047843 81.032 -166.4345
1921.874344 80.985 -166.4664
1935.801038 80.932 -166.4781
1949.828650 80.872 -166.4649
1963.957912 80.808 -166.4243
1978.189561 80.739 -166.3557
1992.524338 80.666 -166.2598
2006.962991 80.592 -166.1377
2021.506272 80.515 -165.9915
2036.154940 80.437 -165.8235
2050.909758 80.359 -165.6375
2065.771495 80.281 -165.4382
2080.740927 80.205 -165.2316
2095.818833 80.130 -165.0245
2111.006001 80.056 -164.8239
2126.303220 79.982 -164.6356
2141.711290 79.909 -164.4632
2157.231013 79.835 -164.3073
2172.863198 79.758 -164.1651
2188.608660 79.679 -164.0306
2204.468221 79.595 -163.8952
2220.442706 79.508 -163.7494
2236.532950 79.416 -163.5834
2252.739789 79.322 -163.3895
2269.064070 79.225 -163.1629
2285.506644 79.128 -162.9028
2302.068367 79.032 -162.6121
2318.750104 78.936 -162.2959
2335.552723 78.842 -161.9592
2352.477101 78.748 -161.6048
2369.524119 78.654 -161.2308
2386.694668 78.558 -160.8296
2403.989641 78.460 -160.3871
2421.409941 78.359 -159.8839
2438.956476 78.256 -159.2961
2456.630160 78.151 -158.5987
2474.431915 78.050 -157.7687
2492.362668 77.956 -156.7894
2510.423356 77.874 -155.6544
2528.614918 77.810 -154.3711
2546.938304 77.771 -152.9609
2565.394469 77.760 -151.4573
2583.984375 77.780 -149.9011
2602.708991 77.833 -148.3343
2621.569293 77.916 -146.7950
2640.566265 78.029 -145.3141
2659.700897 78.168 -143.9152
2678.974186 78.331 -142.6154
2698.387137 78.515 -141.4281
2717.940763 78.716 -140.3636
2737.636082 78.932 -139.4295
2757.474121 79.159 -138.6306
2777.455915 79.393 -137.9678
2797.582506 79.633 -137.4385
2817.854942 79.875 -137.0373
2838.274281 80.117 -136.7571
2858.841586 80.358 -136.5910
2879.557931 80.596 -136.5333
2900.424394 80.829 -136.5800
2921.442065 81.055 -136.7278
2942.612039 81.273 -136.9721
2963.935418 81.480 -137.3065
2985.413316 81.675 -137.7210
3007.046852 81.855 -138.2029
3028.837153 82.021 -138.7373
3050.785356 82.170 -139.3090
3072.892604 82.304 -139.9028
3095.160050 82.423 -140.5056
3117.588856 82.529 -141.1068
3140.180190 82.621 -141.6994
3162.935230 82.702 -142.2802
3185.855163 82.774 -142.8501
3208.941182 82.836 -143.4133
3232.194493 82.890 -143.9760
3255.616307 82.935 -144.5456
3279.207844 82.973 -145.1301
3302.970336 83.001 -145.7377
3326.905021 83.019 -146.3755
3351.013146 83.025 -147.0475
3375.295969 83.016 -147.7524
3399.754755 82.989 -148.4804
3424.390779 82.941 -149.2127
3449.205326 82.870 -149.9208
3474.199690 82.774 -150.5680
3499.375173 82.654 -151.1117
3524.733088 82.511 -151.5063
3550.274757 82.350 -151.7085
3576.001511 82.177 -151.6831
3601.914692 82.001 -151.4118
3628.015651 81.832 -150.9005
3654.305748 81.682 -150.1836
3680.786354 81.558 -149.3211
3707.458849 81.467 -148.3866
3734.324624 81.410 -147.4516
3761.385080 81.385 -146.5717
3788.641627 81.389 -145.7793
3816.095686 81.416 -145.0845
3843.748688 81.463 -144.4814
3871.602076 81.528 -143.9564
3899.657300 81.608 -143.4966
3927.915825 81.704 -143.0973
3956.379122 81.816 -142.7653
3985.048676 81.942 -142.5163
4013.925981 82.081 -142.3686
4043.012544 82.227 -142.3358
4072.309879 82.377 -142.4222
4101.819515 82.527 -142.6234
4131.542990 82.674 -142.9278
4161.481854 82.814 -143.3211
4191.637667 82.946 -143.7885
4222.012001 83.069 -144.3165
4252.606441 83.183 -144.8944
4283.422580 83.286 -145.5132
4314.462026 83.378 -146.1653
4345.726396 83.459 -146.8430
4377.217321 83.527 -147.5382
4408.936442 83.583 -148.2427
4440.885413 83.626 -148.9488
4473.065899 83.656 -149.6497
4505.479579 83.675 -150.3398
4538.128141 83.682 -151.0144
4571.013288 83.679 -151.6692
4604.136735 83.665 -152.3002
4637.500207 83.641 -152.9038
4671.105446 83.608 -153.4766
4704.954201 83.567 -154.0159
4739.048239 83.519 -154.5187
4773.389336 83.465 -154.9824
4807.979283 83.406 -155.4034
4842.819883 83.342 -155.7774
4877.912952 83.275 -156.0994
4913.260320 83.206 -156.3637
4948.863830 83.138 -156.5655
4984.725337 83.072 -156.7013
5020.846712 83.011 -156.7707
5057.229836 82.957 -156.7758
5093.876609 82.913 -156.7219
5130.788938 82.882 -156.6162
5167.968750 82.864 -156.4676
5205.417982 82.862 -156.2853
5243.138586 82.876 -156.0789
5281.132530 82.909 -155.8580
5319.401793 82.960 -155.6326
5357.948371 83.032 -155.4149
5396.774274 83.124 -155.2192
5435.881525 83.236 -155.0627
5475.272163 83.368 -154.9640
5514.948243 83.520 -154.9421
5554.911831 83.688 -155.0145
5595.165012 83.870 -155.1967
5635.709884 84.065 -155.5021
5676.548561 84.270 -155.9415
5717.683172 84.481 -156.5241
5759.115861 84.696 -157.2576
5800.848789 84.912 -158.1488
5842.884130 85.127 -159.2035
5885.224077 85.336 -160.4273
5927.870837 85.537 -161.8251
5970.826633 85.724 -163.4006
6014.093704 85.895 -165.1548
6057.674306 86.044 -167.0847
6101.570711 86.166 -169.1823
6145.785208 86.256 -171.4339
6190.320101 86.310 -173.8205
6235.177712 86.324 -176.3181
6280.360380 86.293 -178.8973
6325.870460 86.213 178.4767
6371.710325 86.083 175.8447
6417.882365 85.898 173.2525
6464.388986 85.659 170.7502
6511.232613 85.364 168.3906
6558.415689 85.016 166.2281
6605.940673 84.617 164.3175
6653.810042 84.169 162.7137
6702.026292 83.677 161.4723
6750.591937 83.147 160.6500
6799.509509 82.584 160.3043
6848.781558 81.997 160.4909
6898.410653 81.394 161.2600
6948.399380 80.790 162.6485
6998.750346 80.196 164.6726
7049.466176 79.629 167.3189
7100.549514 79.105 170.5371
7152.003023 78.644 174.2355
7203.829385 78.261 178.2812
7256.031302 77.969 -177.4923
7308.611496 77.778 -173.2717
7361.572708 77.689 -169.2441
7414.917698 77.699 -165.5766
7468.649249 77.795 -162.3992
7522.770160 77.960 -159.7968
7577.283253 78.176 -157.8090
7632.191371 78.420 -156.4375
7687.497376 78.675 -155.6555
7743.204151 78.920 -155.4147
7799.314600 79.142 -155.6502
7855.831649 79.325 -156.2833
7912.758244 79.460 -157.2238
7970.097352 79.539 -158.3721
8027.851962 79.555 -159.6201
8086.025087 79.506 -160.8496
8144.619758 79.391 -161.9316
8203.639030 79.215 -162.7264
8263.085980 78.985 -163.0877
8322.963708 78.715 -162.8710
8383.275334 78.425 -161.9502
8444.024002 78.139 -160.2433
8505.212881 77.885 -157.7473
8566.845160 77.694 -154.5703
8628.924051 77.588 -150.9404
8691.452792 77.584 -147.1713
8754.434642 77.683 -143.5888
8817.872884 77.875 -140.4556
8881.770826 78.143 -137.9287
8946.131799 78.463 -136.0595
9010.959157 78.816 -134.8215
9076.256282 79.186 -134.1458
9142.026576 79.560 -133.9487
9208.273470 79.930 -134.1488
9275.000415 80.292 -134.6754
9342.210891 80.645 -135.4718
9409.908403 80.987 -136.4955
9478.096478 81.321 -137.7173
9546.778672 81.647 -139.1180
9615.958566 81.967 -140.6863
9685.639765 82.282 -142.4163
9755.825904 82.593 -144.3056
9826.520640 82.902 -146.3549
9897.727659 83.211 -148.5683
9969.450674 83.520 -150.9552
10041.693423 83.831 -153.5298
10114.459673 84.141 -156.3103
10187.753217 84.449 -159.3179
10261.577877 84.750 -162.5743
10335.937500 85.038 -166.0988
10410.835964 85.305 -169.9059
10486.277173 85.543 -174.0029
10562.265060 85.741 -178.3869
10638.803587 85.891 176.9565
10715.896743 85.983 172.0549
10793.548548 86.011 166.9482
10871.763050 85.967 161.6865
10950.544327 85.848 156.3258
11029.896485 85.653 150.9238
11109.823662 85.382 145.5360
11190.330024 85.038 140.2117
11271.419768 84.625 134.9931
11353.097122 84.146 129.9142
11435.366344 83.605 125.0014
11518.231722 83.008 120.2759
11601.697577 82.359 115.7531
11685.768261 81.661 111.4449
11770.448155 80.919 107.3600
11855.741674 80.135 103.5030
11941.653265 79.314 99.8741
12028.187408 78.459 96.4679
12115.348612 77.573 93.2703
12203.141422 76.662 90.2567
12291.570415 75.729 87.3881
12380.640201 74.782 84.6078
12470.355424 73.826 81.8392
12560.720760 72.870 78.9840
12651.740920 71.923 75.9239
12743.420650 70.994 72.5201
12835.764729 70.093 68.6096
12928.777972 69.227 63.9890
13022.465227 68.406 58.3743
13116.831378 67.634 51.3057
13211.881345 66.915 41.9321
13307.620084 66.255 28.5332
13404.052584 65.657 7.8016
13501.183875 65.127 -23.1852
13599.019019 64.673 -56.3875
13697.563116 64.307 -80.0281
13796.821305 64.040 -94.9354
13896.798760 63.885 -104.8982
13997.500692 63.853 -112.1058
14098.932352 63.952 -117.6576
14201.099028 64.181 -122.1478
14304.006046 64.535 -125.9404
14407.658770 64.999 -129.2897
14512.062604 65.556 -132.3921
14617.222992 66.186 -135.4080
14723.145416 66.870 -138.4692
14829.835397 67.588 -141.6816
14937.298497 68.328 -145.1262
15045.540320 69.077 -148.8615
15154.566507 69.826 -152.9285
15264.382743 70.568 -157.3546
15374.994752 71.297 -162.1586
15486.408302 72.009 -167.3541
15598.629201 72.697 -172.9529
15711.663298 73.358 -178.9650
15825.516487 73.986 174.6009
15940.194703 74.576 167.7394
16055.703925 75.123 160.4500
16172.050174 75.623 152.7391
16289.239516 76.072 144.6210
16407.278061 76.471 136.1174
16526.171961 76.822 127.2555
16645.927415 77.129 118.0660
16766.550667 77.400 108.5782
16888.048005 77.648 98.8184
17010.425762 77.887 88.8058
17133.690320 78.132 78.5493
17257.848103 78.400 68.0445
17382.905584 78.705 57.2735
17508.869284 79.053 46.2046
17635.745768 79.446 34.7974
17763.541652 79.876 23.0114
17892.263597 80.330 10.8148
18021.918315 80.795 -1.8035
18152.512564 81.256 -14.8290
18284.053153 81.699 -28.2202
18416.546939 82.116 -41.9174
18550.000830 82.498 -55.8699
18684.421783 82.843 -70.0806
18819.816805 83.145 -84.7078
18956.192956 83.404 -100.3281
19093.557344 83.618 -118.8278
19231.917131 83.788 -147.3077
19371.279531 83.916 153.7222
19511.651807 84.007 100.7147
19653.041280 84.065 79.0576
19795.455318 84.099 69.0117
19938.901348 84.114 64.7052
