* Measurement data measured by REW V5.31.3
* Source: EXCL: Headset (USB-C to 3.5mm Headphone Jack Adapter), MICROPHONE (Master Volume), 0, volume: 0.750
* Format: 256k Log Swept Sine, 1 sweep at -12.0 dBFS with no timing reference
* Dated: Apr 7, 2025 5:04:00 PM
* REW Settings:
*  C-weighting compensation: Off
*  Target level: 75.0 dB
* Note: ; 
* Measurement: Maxwell (Wired) L3
* Smoothing: 1/6 octave
* Frequency Step: 96 ppo
* Start Frequency: 20.0 Hz
*
* Freq(Hz) SPL(dB) Phase(degrees)
20.187378 81.716 -22.1647
20.333664 81.736 -22.4078
20.481010 81.767 -22.7343
20.629424 81.814 -23.1366
20.778913 81.883 -23.6094
20.929486 81.976 -24.1509
21.081150 82.097 -24.7640
21.233912 82.248 -25.4545
21.387782 82.426 -26.2298
21.542767 82.629 -27.0966
21.698874 82.851 -28.0580
21.856113 83.084 -29.1128
22.014492 83.322 -30.2542
22.174018 83.556 -31.4701
22.334700 83.782 -32.7445
22.496546 83.992 -34.0583
22.659566 84.184 -35.3917
22.823766 84.353 -36.7255
22.989157 84.499 -38.0426
23.155745 84.623 -39.3298
23.323542 84.724 -40.5785
23.492554 84.808 -41.7858
23.662790 84.875 -42.9547
23.834261 84.932 -44.0936
24.006973 84.981 -45.2158
24.180938 85.027 -46.3376
24.356163 85.073 -47.4760
24.532658 85.121 -48.6464
24.710431 85.172 -49.8605
24.889493 85.228 -51.1234
25.069853 85.288 -52.4337
25.251519 85.351 -53.7831
25.434502 85.416 -55.1576
25.618811 85.483 -56.5402
25.804456 85.551 -57.9131
25.991445 85.620 -59.2605
26.179790 85.690 -60.5715
26.369500 85.761 -61.8409
26.560584 85.833 -63.0702
26.753053 85.905 -64.2671
26.946917 85.976 -65.4431
27.142185 86.046 -66.6120
27.338869 86.110 -67.7869
27.536977 86.168 -68.9780
27.736522 86.217 -70.1913
27.937512 86.256 -71.4275
28.139959 86.285 -72.6828
28.343872 86.303 -73.9499
28.549264 86.313 -75.2197
28.756143 86.316 -76.4833
28.964522 86.316 -77.7335
29.174411 86.315 -78.9659
29.385821 86.316 -80.1794
29.598763 86.320 -81.3751
29.813248 86.328 -82.5555
30.029287 86.340 -83.7226
30.246891 86.355 -84.8769
30.466073 86.372 -86.0164
30.686842 86.387 -87.1368
30.909212 86.402 -88.2325
31.133193 86.415 -89.2982
31.358797 86.427 -90.3307
31.586035 86.438 -91.3298
31.814921 86.451 -92.2995
32.045465 86.465 -93.2476
32.277680 86.484 -94.1840
32.511577 86.506 -95.1190
32.747169 86.532 -96.0614
32.984469 86.560 -97.0160
33.223488 86.591 -97.9829
33.464239 86.623 -98.9573
33.706735 86.656 -99.9307
33.950987 86.690 -100.8921
34.197010 86.725 -101.8306
34.444816 86.761 -102.7368
34.694417 86.800 -103.6049
34.945827 86.842 -104.4330
35.199059 86.887 -105.2236
35.454126 86.937 -105.9826
35.711041 86.989 -106.7186
35.969818 87.045 -107.4416
36.230470 87.103 -108.1617
36.493011 87.163 -108.8880
36.757455 87.223 -109.6280
37.023814 87.284 -110.3862
37.292104 87.346 -111.1639
37.562338 87.407 -111.9589
37.834530 87.467 -112.7649
38.108695 87.528 -113.5727
38.384846 87.588 -114.3705
38.662999 87.649 -115.1458
38.943167 87.710 -115.8871
39.225365 87.774 -116.5859
39.509608 87.840 -117.2379
39.795911 87.909 -117.8443
40.084289 87.981 -118.4119
40.374756 88.055 -118.9519
40.667328 88.132 -119.4793
40.962020 88.211 -120.0105
41.258848 88.290 -120.5619
41.557827 88.367 -121.1482
41.858972 88.443 -121.7816
42.162299 88.517 -122.4708
42.467824 88.586 -123.2214
42.775564 88.652 -124.0357
43.085533 88.713 -124.9136
43.397749 88.770 -125.8527
43.712227 88.823 -126.8495
44.028983 88.873 -127.8995
44.348036 88.919 -128.9980
44.669400 88.962 -130.1398
44.993093 89.003 -131.3196
45.319131 89.040 -132.5324
45.647532 89.074 -133.7724
45.978313 89.105 -135.0340
46.311491 89.131 -136.3108
46.647083 89.151 -137.5966
46.985107 89.166 -138.8849
47.325581 89.174 -140.1698
47.668521 89.175 -141.4459
48.013947 89.169 -142.7089
48.361876 89.155 -143.9552
48.712326 89.134 -145.1816
49.065315 89.106 -146.3853
49.420863 89.070 -147.5635
49.778987 89.027 -148.7132
50.139706 88.976 -149.8326
50.503039 88.918 -150.9209
50.869005 88.853 -151.9795
51.237623 88.780 -153.0114
51.608912 88.701 -154.0208
51.982891 88.616 -155.0113
52.359580 88.524 -155.9849
52.739000 88.427 -156.9409
53.121168 88.325 -157.8763
53.506106 88.219 -158.7864
53.893833 88.109 -159.6661
54.284370 87.997 -160.5107
54.677737 87.883 -161.3169
55.073955 87.769 -162.0825
55.473043 87.654 -162.8058
55.875024 87.540 -163.4859
56.279917 87.427 -164.1219
56.687745 87.316 -164.7129
57.098527 87.208 -165.2578
57.512287 87.101 -165.7559
57.929045 86.997 -166.2071
58.348822 86.896 -166.6140
58.771642 86.797 -166.9825
59.197525 86.701 -167.3222
59.626495 86.608 -167.6449
60.058573 86.519 -167.9625
60.493782 86.433 -168.2835
60.932145 86.350 -168.6123
61.373685 86.271 -168.9485
61.818424 86.196 -169.2883
62.266386 86.126 -169.6263
62.717593 86.059 -169.9566
63.172071 85.998 -170.2742
63.629842 85.941 -170.5751
64.090930 85.889 -170.8564
64.555359 85.843 -171.1164
65.023154 85.802 -171.3537
65.494339 85.766 -171.5676
65.968938 85.735 -171.7574
66.446976 85.709 -171.9232
66.928478 85.686 -172.0664
67.413469 85.666 -172.1896
67.901975 85.647 -172.2971
68.394021 85.630 -172.3939
68.889632 85.612 -172.4857
69.388835 85.596 -172.5777
69.891655 85.579 -172.6744
70.398118 85.563 -172.7797
70.908252 85.547 -172.8959
71.422083 85.532 -173.0241
71.939636 85.517 -173.1638
72.460941 85.503 -173.3130
72.986023 85.488 -173.4689
73.514909 85.473 -173.6285
74.047629 85.458 -173.7899
74.584208 85.442 -173.9528
75.124676 85.425 -174.1186
75.669061 85.406 -174.2901
76.217390 85.387 -174.4703
76.769692 85.366 -174.6620
77.325997 85.344 -174.8670
77.886333 85.321 -175.0861
78.450730 85.296 -175.3190
79.019216 85.270 -175.5650
79.591822 85.242 -175.8230
80.168577 85.212 -176.0912
80.749512 85.182 -176.3680
81.334656 85.149 -176.6516
81.924040 85.115 -176.9406
82.517696 85.081 -177.2338
83.115653 85.045 -177.5303
83.717943 85.008 -177.8292
84.324598 84.971 -178.1292
84.935649 84.933 -178.4291
85.551128 84.894 -178.7277
86.171066 84.855 -179.0238
86.795497 84.815 -179.3168
87.424453 84.775 -179.6062
88.057967 84.732 -179.8921
88.696071 84.689 179.8253
89.338800 84.644 179.5458
89.986185 84.597 179.2698
90.638262 84.549 178.9982
91.295065 84.499 178.7316
91.956626 84.448 178.4710
92.622982 84.396 178.2174
93.294166 84.342 177.9719
93.970214 84.288 177.7355
94.651161 84.234 177.5096
95.337042 84.179 177.2950
96.027894 84.124 177.0925
96.723752 84.068 176.9025
97.424652 84.013 176.7252
98.130631 83.957 176.5606
98.841726 83.901 176.4084
99.557974 83.846 176.2684
100.279412 83.791 176.1399
101.006078 83.738 176.0225
101.738010 83.685 175.9157
102.475245 83.635 175.8189
103.217823 83.587 175.7318
103.965782 83.540 175.6537
104.719161 83.496 175.5842
105.477999 83.455 175.5222
106.242336 83.417 175.4668
107.012212 83.381 175.4173
107.787666 83.349 175.3735
108.568740 83.321 175.3353
109.355474 83.295 175.3026
110.147909 83.273 175.2746
110.946086 83.253 175.2496
111.750047 83.235 175.2253
112.559834 83.219 175.1993
113.375489 83.205 175.1695
114.197055 83.191 175.1340
115.024574 83.180 175.0912
115.858089 83.169 175.0402
116.697645 83.159 174.9802
117.543284 83.151 174.9109
118.395051 83.144 174.8331
119.252990 83.138 174.7477
120.117147 83.133 174.6562
120.987565 83.128 174.5596
121.864291 83.122 174.4586
122.747370 83.116 174.3535
123.636848 83.109 174.2439
124.532771 83.101 174.1290
125.435187 83.091 174.0075
126.344142 83.080 173.8781
127.259684 83.068 173.7391
128.181860 83.054 173.5892
129.110718 83.039 173.4277
130.046308 83.023 173.2540
130.988677 83.005 173.0683
131.937875 82.986 172.8713
132.893951 82.963 172.6640
133.856956 82.938 172.4482
134.826938 82.910 172.2264
135.803950 82.878 172.0009
136.788041 82.842 171.7743
137.779264 82.803 171.5482
138.777669 82.759 171.3235
139.783309 82.712 171.1008
140.796237 82.662 170.8809
141.816504 82.608 170.6650
142.844165 82.550 170.4552
143.879273 82.490 170.2539
144.921881 82.426 170.0633
145.972045 82.359 169.8857
147.029819 82.289 169.7229
148.095257 82.217 169.5763
149.168417 82.141 169.4471
150.249353 82.063 169.3369
151.338121 81.982 169.2474
152.434780 81.900 169.1809
153.539385 81.815 169.1401
154.651995 81.728 169.1276
155.772667 81.640 169.1457
156.901460 81.551 169.1960
158.038432 81.460 169.2793
159.183644 81.370 169.3954
160.337154 81.279 169.5441
161.499023 81.190 169.7246
162.669312 81.103 169.9363
163.848081 81.018 170.1780
165.035392 80.937 170.4484
166.231306 80.859 170.7458
167.435887 80.784 171.0682
168.649196 80.714 171.4140
169.871298 80.647 171.7818
171.102255 80.585 172.1704
172.342133 80.526 172.5785
173.590995 80.472 173.0043
174.848907 80.423 173.4452
176.115934 80.378 173.8976
177.392143 80.338 174.3571
178.677599 80.303 174.8187
179.972371 80.273 175.2783
181.276525 80.248 175.7320
182.590129 80.227 176.1769
183.913252 80.210 176.6109
185.245964 80.197 177.0323
186.588332 80.187 177.4400
187.940428 80.180 177.8332
189.302322 80.177 178.2114
190.674085 80.177 178.5737
192.055788 80.180 178.9195
193.447503 80.186 179.2477
194.849303 80.194 179.5573
196.261262 80.204 179.8467
197.683452 80.215 -179.8849
199.115948 80.226 -179.6379
200.558824 80.236 -179.4117
202.012156 80.245 -179.2047
203.476019 80.253 -179.0149
204.950490 80.260 -178.8397
206.435646 80.267 -178.6759
207.931564 80.273 -178.5206
209.438322 80.279 -178.3711
210.955998 80.285 -178.2260
212.484672 80.292 -178.0850
214.024424 80.298 -177.9488
215.575333 80.305 -177.8181
217.137481 80.312 -177.6932
218.710948 80.318 -177.5733
220.295818 80.325 -177.4565
221.892172 80.332 -177.3405
223.500094 80.339 -177.2225
225.119668 80.347 -177.1004
226.750978 80.355 -176.9724
228.394109 80.364 -176.8384
230.049147 80.374 -176.6994
231.716178 80.384 -176.5569
233.395289 80.395 -176.4125
235.086567 80.407 -176.2676
236.790102 80.421 -176.1230
238.505980 80.436 -175.9784
240.234293 80.452 -175.8334
241.975130 80.470 -175.6871
243.728581 80.490 -175.5390
245.494739 80.512 -175.3892
247.273695 80.536 -175.2381
249.065542 80.562 -175.0863
250.870374 80.589 -174.9350
252.688284 80.618 -174.7858
254.519367 80.648 -174.6401
256.363720 80.680 -174.4992
258.221437 80.712 -174.3643
260.092616 80.747 -174.2362
261.977354 80.782 -174.1154
263.875750 80.819 -174.0032
265.787903 80.857 -173.9006
267.713911 80.896 -173.8095
269.653877 80.936 -173.7325
271.607900 80.977 -173.6726
273.576083 81.019 -173.6328
275.558528 81.062 -173.6158
277.555338 81.104 -173.6229
279.566619 81.147 -173.6546
281.592474 81.188 -173.7105
283.633009 81.229 -173.7893
285.688331 81.269 -173.8890
287.758546 81.306 -174.0071
289.843763 81.342 -174.1409
291.944090 81.374 -174.2873
294.059638 81.404 -174.4437
296.190515 81.430 -174.6072
298.336833 81.454 -174.7750
300.498705 81.473 -174.9441
302.676243 81.489 -175.1112
304.869559 81.501 -175.2730
307.078770 81.511 -175.4259
309.303989 81.517 -175.5665
311.545334 81.520 -175.6913
313.802919 81.520 -175.7976
316.076865 81.518 -175.8827
318.367288 81.515 -175.9450
320.674309 81.510 -175.9832
322.998047 81.503 -175.9969
325.338624 81.496 -175.9860
327.696162 81.489 -175.9510
330.070783 81.481 -175.8923
332.462612 81.473 -175.8112
334.871773 81.466 -175.7092
337.298392 81.459 -175.5883
339.742595 81.453 -175.4504
342.204510 81.448 -175.2969
344.684265 81.443 -175.1292
347.181989 81.439 -174.9485
349.697813 81.436 -174.7558
352.231868 81.434 -174.5522
354.784285 81.434 -174.3389
357.355198 81.434 -174.1171
359.944741 81.436 -173.8883
362.553049 81.440 -173.6538
365.180258 81.445 -173.4146
367.826505 81.451 -173.1716
370.491927 81.460 -172.9254
373.176665 81.470 -172.6768
375.880856 81.482 -172.4267
378.604644 81.496 -172.1764
381.348169 81.511 -171.9270
384.111575 81.530 -171.6797
386.895006 81.550 -171.4360
389.698607 81.572 -171.1974
392.522524 81.597 -170.9656
395.366904 81.624 -170.7427
398.231895 81.653 -170.5306
401.117648 81.684 -170.3311
404.024312 81.718 -170.1458
406.952038 81.753 -169.9757
409.900981 81.791 -169.8221
412.871292 81.829 -169.6859
415.863128 81.869 -169.5685
418.876643 81.910 -169.4710
421.911996 81.951 -169.3948
424.969344 81.993 -169.3411
428.048847 82.034 -169.3109
431.150666 82.075 -169.3052
434.274961 82.115 -169.3246
437.421897 82.154 -169.3695
440.591636 82.191 -169.4400
443.784345 82.227 -169.5356
447.000189 82.261 -169.6560
450.239337 82.293 -169.8004
453.501956 82.324 -169.9682
456.788219 82.352 -170.1591
460.098294 82.378 -170.3726
463.432356 82.403 -170.6084
466.790578 82.424 -170.8663
470.173135 82.444 -171.1456
473.580203 82.461 -171.4458
477.011961 82.475 -171.7658
480.468586 82.486 -172.1041
483.950259 82.494 -172.4588
487.457163 82.498 -172.8274
490.989478 82.498 -173.2070
494.547390 82.495 -173.5942
498.131084 82.487 -173.9851
501.740748 82.476 -174.3757
505.376568 82.460 -174.7619
509.038735 82.442 -175.1397
512.727439 82.420 -175.5055
516.442874 82.396 -175.8561
520.185232 82.370 -176.1887
523.954708 82.342 -176.5015
527.751500 82.314 -176.7932
531.575805 82.287 -177.0632
535.427822 82.260 -177.3117
539.307753 82.235 -177.5394
543.215800 82.212 -177.7479
547.152165 82.191 -177.9395
551.117055 82.173 -178.1165
555.110677 82.159 -178.2818
559.133237 82.147 -178.4379
563.184947 82.137 -178.5874
567.266018 82.131 -178.7327
571.376661 82.127 -178.8758
575.517092 82.124 -179.0188
579.687526 82.123 -179.1635
583.888181 82.123 -179.3116
588.119275 82.124 -179.4644
592.381030 82.124 -179.6231
596.673667 82.123 -179.7886
600.997410 82.122 -179.9617
605.352485 82.119 179.8571
609.739119 82.114 179.6674
614.157540 82.107 179.4688
618.607979 82.098 179.2612
623.090667 82.086 179.0447
627.605839 82.070 178.8195
632.153730 82.051 178.5861
636.734576 82.028 178.3452
641.348617 82.001 178.0980
645.996094 81.969 177.8457
650.677248 81.932 177.5901
655.392323 81.890 177.3331
660.141566 81.843 177.0770
664.925224 81.790 176.8242
669.743546 81.732 176.5771
674.596784 81.668 176.3386
679.485191 81.598 176.1114
684.409020 81.522 175.8988
689.368530 81.440 175.7042
694.363979 81.352 175.5315
699.395626 81.258 175.3847
704.463736 81.158 175.2685
709.568570 81.052 175.1877
714.710396 80.940 175.1476
719.889483 80.822 175.1542
725.106099 80.700 175.2135
730.360516 80.572 175.3321
735.653010 80.440 175.5168
740.983855 80.305 175.7740
746.353329 80.168 176.1096
751.761713 80.030 176.5273
757.209288 79.894 177.0289
762.696339 79.761 177.6130
768.223151 79.633 178.2745
773.790013 79.513 179.0052
779.397214 79.401 179.7941
785.045047 79.300 -179.3717
790.733808 79.209 -178.5056
796.463791 79.130 -177.6208
802.235296 79.063 -176.7292
808.048623 79.007 -175.8412
813.904077 78.962 -174.9651
819.801961 78.927 -174.1079
825.742584 78.903 -173.2746
831.726255 78.887 -172.4693
837.753287 78.880 -171.6951
843.823992 78.881 -170.9543
849.938689 78.890 -170.2491
856.097695 78.905 -169.5810
862.301332 78.926 -168.9514
868.549922 78.952 -168.3612
874.843793 78.983 -167.8105
881.183272 79.018 -167.2987
887.568689 79.055 -166.8246
894.000378 79.096 -166.3863
900.478673 79.138 -165.9819
907.003913 79.183 -165.6093
913.576437 79.230 -165.2667
920.196588 79.279 -164.9530
926.864712 79.331 -164.6677
933.581156 79.384 -164.4107
940.346270 79.439 -164.1822
947.160407 79.496 -163.9826
954.023921 79.554 -163.8112
960.937172 79.613 -163.6667
967.900519 79.673 -163.5465
974.914325 79.732 -163.4467
981.978956 79.792 -163.3631
989.094780 79.852 -163.2910
996.262169 79.912 -163.2269
1003.481495 79.974 -163.1692
1010.753136 80.038 -163.1184
1018.077470 80.104 -163.0780
1025.454879 80.173 -163.0536
1032.885748 80.244 -163.0517
1040.370463 80.317 -163.0789
1047.909417 80.390 -163.1404
1055.503000 80.463 -163.2389
1063.151610 80.533 -163.3746
1070.855645 80.599 -163.5447
1078.615506 80.660 -163.7439
1086.431599 80.714 -163.9646
1094.304330 80.762 -164.1980
1102.234110 80.802 -164.4348
1110.221353 80.835 -164.6655
1118.266475 80.860 -164.8810
1126.369895 80.879 -165.0733
1134.532035 80.891 -165.2347
1142.753322 80.897 -165.3584
1151.034184 80.899 -165.4384
1159.375052 80.897 -165.4690
1167.776361 80.892 -165.4456
1176.238550 80.885 -165.3642
1184.762060 80.879 -165.2223
1193.347334 80.874 -165.0190
1201.994821 80.873 -164.7549
1210.704971 80.876 -164.4324
1219.478238 80.886 -164.0550
1228.315080 80.903 -163.6271
1237.215957 80.929 -163.1540
1246.181334 80.965 -162.6420
1255.211678 81.012 -162.0990
1264.307459 81.071 -161.5360
1273.469152 81.143 -160.9673
1282.697235 81.229 -160.4104
1291.992188 81.327 -159.8840
1301.354495 81.437 -159.4064
1310.784647 81.557 -158.9933
1320.283132 81.685 -158.6566
1329.850448 81.817 -158.4041
1339.487093 81.954 -158.2395
1349.193569 82.091 -158.1636
1358.970381 82.227 -158.1742
1368.818041 82.360 -158.2673
1378.737061 82.490 -158.4378
1388.727958 82.614 -158.6791
1398.791253 82.732 -158.9843
1408.927471 82.843 -159.3456
1419.137140 82.946 -159.7547
1429.420793 83.040 -160.2024
1439.778965 83.124 -160.6786
1450.212197 83.199 -161.1715
1460.721033 83.264 -161.6682
1471.306019 83.318 -162.1546
1481.967709 83.363 -162.6159
1492.706658 83.400 -163.0382
1503.523426 83.431 -163.4108
1514.418576 83.457 -163.7277
1525.392678 83.481 -163.9894
1536.446302 83.505 -164.2026
1547.580025 83.531 -164.3785
1558.794428 83.557 -164.5302
1570.090095 83.585 -164.6705
1581.467615 83.611 -164.8095
1592.927581 83.636 -164.9536
1604.470591 83.658 -165.1056
1616.097246 83.675 -165.2644
1627.808153 83.686 -165.4267
1639.603922 83.691 -165.5872
1651.485168 83.689 -165.7397
1663.452510 83.680 -165.8779
1675.506573 83.665 -165.9955
1687.647984 83.644 -166.0862
1699.877377 83.617 -166.1439
1712.195390 83.586 -166.1632
1724.602663 83.553 -166.1401
1737.099845 83.518 -166.0732
1749.687587 83.485 -165.9653
1762.366544 83.454 -165.8241
1775.137379 83.427 -165.6621
1788.000756 83.405 -165.4947
1800.957346 83.387 -165.3380
1814.007826 83.373 -165.2058
1827.152874 83.360 -165.1081
1840.393177 83.347 -165.0500
1853.729425 83.331 -165.0317
1867.162312 83.310 -165.0489
1880.692540 83.283 -165.0942
1894.320813 83.248 -165.1582
1908.047843 83.204 -165.2306
1921.874344 83.151 -165.3010
1935.801038 83.089 -165.3594
1949.828650 83.019 -165.3962
1963.957912 82.939 -165.4018
1978.189561 82.851 -165.3671
1992.524338 82.757 -165.2836
2006.962991 82.658 -165.1449
2021.506272 82.555 -164.9477
2036.154940 82.450 -164.6929
2050.909758 82.347 -164.3851
2065.771495 82.245 -164.0323
2080.740927 82.147 -163.6436
2095.818833 82.054 -163.2286
2111.006001 81.965 -162.7966
2126.303220 81.882 -162.3558
2141.711290 81.804 -161.9144
2157.231013 81.731 -161.4794
2172.863198 81.664 -161.0578
2188.608660 81.601 -160.6551
2204.468221 81.543 -160.2755
2220.442706 81.488 -159.9220
2236.532950 81.435 -159.5957
2252.739789 81.384 -159.2968
2269.064070 81.333 -159.0245
2285.506644 81.282 -158.7764
2302.068367 81.231 -158.5493
2318.750104 81.178 -158.3385
2335.552723 81.122 -158.1387
2352.477101 81.064 -157.9442
2369.524119 81.002 -157.7485
2386.694668 80.937 -157.5441
2403.989641 80.867 -157.3212
2421.409941 80.792 -157.0674
2438.956476 80.713 -156.7663
2456.630160 80.630 -156.3993
2474.431915 80.544 -155.9460
2492.362668 80.458 -155.3874
2510.423356 80.375 -154.7078
2528.614918 80.300 -153.8973
2546.938304 80.237 -152.9536
2565.394469 80.190 -151.8833
2583.984375 80.166 -150.7031
2602.708991 80.167 -149.4394
2621.569293 80.197 -148.1270
2640.566265 80.256 -146.8055
2659.700897 80.343 -145.5150
2678.974186 80.457 -144.2910
2698.387137 80.594 -143.1620
2717.940763 80.750 -142.1470
2737.636082 80.921 -141.2559
2757.474121 81.104 -140.4916
2777.455915 81.294 -139.8522
2797.582506 81.488 -139.3332
2817.854942 81.685 -138.9295
2838.274281 81.882 -138.6356
2858.841586 82.077 -138.4452
2879.557931 82.267 -138.3505
2900.424394 82.450 -138.3415
2921.442065 82.625 -138.4062
2942.612039 82.790 -138.5303
2963.935418 82.945 -138.6983
2985.413316 83.089 -138.8943
3007.046852 83.223 -139.1036
3028.837153 83.349 -139.3141
3050.785356 83.467 -139.5179
3072.892604 83.580 -139.7124
3095.160050 83.688 -139.9007
3117.588856 83.794 -140.0905
3140.180190 83.897 -140.2929
3162.935230 83.997 -140.5203
3185.855163 84.095 -140.7850
3208.941182 84.188 -141.0981
3232.194493 84.276 -141.4692
3255.616307 84.356 -141.9064
3279.207844 84.427 -142.4160
3302.970336 84.487 -143.0020
3326.905021 84.531 -143.6644
3351.013146 84.557 -144.3970
3375.295969 84.561 -145.1856
3399.754755 84.538 -146.0055
3424.390779 84.486 -146.8212
3449.205326 84.401 -147.5863
3474.199690 84.284 -148.2448
3499.375173 84.134 -148.7341
3524.733088 83.957 -148.9900
3550.274757 83.759 -148.9552
3576.001511 83.551 -148.5892
3601.914692 83.346 -147.8803
3628.015651 83.157 -146.8527
3654.305748 82.997 -145.5658
3680.786354 82.879 -144.1028
3707.458849 82.807 -142.5532
3734.324624 82.785 -140.9969
3761.385080 82.813 -139.4975
3788.641627 82.889 -138.1031
3816.095686 83.008 -136.8520
3843.748688 83.167 -135.7764
3871.602076 83.359 -134.9025
3899.657300 83.579 -134.2474
3927.915825 83.818 -133.8177
3956.379122 84.071 -133.6114
3985.048676 84.332 -133.6222
4013.925981 84.597 -133.8434
4043.012544 84.861 -134.2682
4072.309879 85.119 -134.8892
4101.819515 85.366 -135.6950
4131.542990 85.597 -136.6692
4161.481854 85.809 -137.7896
4191.637667 86.001 -139.0311
4222.012001 86.169 -140.3677
4252.606441 86.314 -141.7758
4283.422580 86.436 -143.2353
4314.462026 86.534 -144.7293
4345.726396 86.610 -146.2434
4377.217321 86.662 -147.7641
4408.936442 86.692 -149.2776
4440.885413 86.699 -150.7698
4473.065899 86.684 -152.2275
4505.479579 86.649 -153.6396
4538.128141 86.596 -154.9980
4571.013288 86.526 -156.2977
4604.136735 86.441 -157.5356
4637.500207 86.341 -158.7096
4671.105446 86.228 -159.8172
4704.954201 86.104 -160.8546
4739.048239 85.968 -161.8171
4773.389336 85.821 -162.6992
4807.979283 85.667 -163.4953
4842.819883 85.505 -164.2000
4877.912952 85.338 -164.8085
4913.260320 85.168 -165.3172
4948.863830 84.998 -165.7240
4984.725337 84.831 -166.0301
5020.846712 84.670 -166.2398
5057.229836 84.517 -166.3609
5093.876609 84.375 -166.4036
5130.788938 84.246 -166.3794
5167.968750 84.133 -166.3006
5205.417982 84.036 -166.1799
5243.138586 83.958 -166.0312
5281.132530 83.899 -165.8698
5319.401793 83.859 -165.7118
5357.948371 83.839 -165.5739
5396.774274 83.838 -165.4730
5435.881525 83.856 -165.4262
5475.272163 83.890 -165.4510
5514.948243 83.940 -165.5649
5554.911831 84.002 -165.7854
5595.165012 84.074 -166.1286
5635.709884 84.151 -166.6073
5676.548561 84.228 -167.2302
5717.683172 84.302 -168.0013
5759.115861 84.368 -168.9195
5800.848789 84.420 -169.9796
5842.884130 84.454 -171.1721
5885.224077 84.466 -172.4830
5927.870837 84.452 -173.8940
5970.826633 84.407 -175.3815
6014.093704 84.327 -176.9170
6057.674306 84.210 -178.4667
6101.570711 84.052 -179.9913
6145.785208 83.852 178.5534
6190.320101 83.609 177.2167
6235.177712 83.324 176.0521
6280.360380 82.996 175.1173
6325.870460 82.629 174.4729
6371.710325 82.228 174.1800
6417.882365 81.798 174.2975
6464.388986 81.348 174.8779
6511.232613 80.886 175.9619
6558.415689 80.425 177.5730
6605.940673 79.977 179.7107
6653.810042 79.555 -177.6539
6702.026292 79.171 -174.5790
6750.591937 78.837 -171.1485
6799.509509 78.561 -167.4635
6848.781558 78.350 -163.6311
6898.410653 78.207 -159.7527
6948.399380 78.132 -155.9152
6998.750346 78.123 -152.1875
7049.466176 78.178 -148.6217
7100.549514 78.292 -145.2572
7152.003023 78.462 -142.1250
7203.829385 78.682 -139.2516
7256.031302 78.947 -136.6604
7308.611496 79.253 -134.3723
7361.572708 79.593 -132.4069
7414.917698 79.961 -130.7825
7468.649249 80.351 -129.5168
7522.770160 80.756 -128.6264
7577.283253 81.168 -128.1253
7632.191371 81.578 -128.0221
7687.497376 81.976 -128.3168
7743.204151 82.352 -128.9985
7799.314600 82.697 -130.0430
7855.831649 83.002 -131.4125
7912.758244 83.257 -133.0549
7970.097352 83.456 -134.9034
8027.851962 83.591 -136.8756
8086.025087 83.658 -138.8737
8144.619758 83.657 -140.7854
8203.639030 83.590 -142.4881
8263.085980 83.465 -143.8566
8322.963708 83.294 -144.7767
8383.275334 83.097 -145.1658
8444.024002 82.895 -144.9954
8505.212881 82.714 -144.3137
8566.845160 82.575 -143.2517
8628.924051 82.496 -142.0050
8691.452792 82.480 -140.7888
8754.434642 82.522 -139.7851
8817.872884 82.609 -139.1072
8881.770826 82.724 -138.7914
8946.131799 82.851 -138.8133
9010.959157 82.979 -139.1105
9076.256282 83.102 -139.6059
9142.026576 83.216 -140.2235
9208.273470 83.325 -140.9002
9275.000415 83.433 -141.5911
9342.210891 83.547 -142.2721
9409.908403 83.674 -142.9398
9478.096478 83.821 -143.6089
9546.778672 83.993 -144.3102
9615.958566 84.192 -145.0854
9685.639765 84.419 -145.9823
9755.825904 84.670 -147.0487
9826.520640 84.940 -148.3273
9897.727659 85.224 -149.8519
9969.450674 85.514 -151.6444
10041.693423 85.803 -153.7145
10114.459673 86.085 -156.0622
10187.753217 86.356 -158.6811
10261.577877 86.609 -161.5610
10335.937500 86.843 -164.6903
10410.835964 87.053 -168.0571
10486.277173 87.235 -171.6492
10562.265060 87.388 -175.4538
10638.803587 87.506 -179.4564
10715.896743 87.586 176.3600
10793.548548 87.626 172.0147
10871.763050 87.622 167.5298
10950.544327 87.573 162.9295
11029.896485 87.475 158.2400
11109.823662 87.327 153.4891
11190.330024 87.129 148.7047
11271.419768 86.879 143.9153
11353.097122 86.579 139.1487
11435.366344 86.228 134.4310
11518.231722 85.829 129.7852
11601.697577 85.385 125.2289
11685.768261 84.898 120.7730
11770.448155 84.374 116.4207
11855.741674 83.816 112.1673
11941.653265 83.230 107.9995
12028.187408 82.621 103.8963
12115.348612 81.993 99.8288
12203.141422 81.352 95.7609
12291.570415 80.703 91.6502
12380.640201 80.051 87.4484
12470.355424 79.398 83.1013
12560.720760 78.750 78.5478
12651.740920 78.110 73.7190
12743.420650 77.481 68.5344
12835.764729 76.866 62.8970
12928.777972 76.268 56.6831
13022.465227 75.689 49.7276
13116.831378 75.133 41.7955
13211.881345 74.604 32.5375
13307.620084 74.108 21.4241
13404.052584 73.653 7.6917
13501.183875 73.246 -9.5454
13599.019019 72.897 -30.5822
13697.563116 72.611 -53.7603
13796.821305 72.393 -75.6924
13896.798760 72.244 -94.1019
13997.500692 72.162 -108.9018
14098.932352 72.143 -120.9356
14201.099028 72.181 -131.0363
14304.006046 72.271 -139.8071
14407.658770 72.407 -147.6545
14512.062604 72.584 -154.8539
14617.222992 72.795 -161.5992
14723.145416 73.036 -168.0317
14829.835397 73.302 -174.2593
14937.298497 73.589 179.6329
15045.540320 73.893 173.5764
15154.566507 74.210 167.5141
15264.382743 74.538 161.3981
15374.994752 74.876 155.1873
15486.408302 75.220 148.8454
15598.629201 75.570 142.3402
15711.663298 75.924 135.6426
15825.516487 76.280 128.7257
15940.194703 76.637 121.5651
16055.703925 76.994 114.1378
16172.050174 77.348 106.4233
16289.239516 77.697 98.4023
16407.278061 78.040 90.0576
16526.171961 78.373 81.3728
16645.927415 78.695 72.3339
16766.550667 79.004 62.9271
16888.048005 79.296 53.1406
17010.425762 79.570 42.9640
17133.690320 79.823 32.3898
17257.848103 80.053 21.4142
17382.905584 80.262 10.0399
17508.869284 80.451 -1.7242
17635.745768 80.623 -13.8615
17763.541652 80.787 -26.3474
17892.263597 80.952 -39.1512
18021.918315 81.127 -52.2361
18152.512564 81.319 -65.5612
18284.053153 81.532 -79.0808
18416.546939 81.762 -92.7462
18550.000830 82.002 -106.5165
18684.421783 82.241 -120.3870
18819.816805 82.465 -134.4678
18956.192956 82.666 -149.2163
19093.557344 82.834 -166.3140
19231.917131 82.966 166.3040
19371.279531 83.062 91.4572
19511.651807 83.126 36.2072
19653.041280 83.164 18.4663
19795.455318 83.183 10.1906
19938.901348 83.191 6.5709
