* Measurement data measured by REW V5.31.3
* Source: EXCL: Headset (USB-C to 3.5mm Headphone Jack Adapter), MICROPHONE (Master Volume), 0, volume: 0.750
* Format: 256k Log Swept Sine, 1 sweep at -12.0 dBFS with no timing reference
* Dated: Apr 7, 2025 5:05:20 PM
* REW Settings:
*  C-weighting compensation: Off
*  Target level: 75.0 dB
* Note: ; 
* Measurement: Maxwell (Wired) L8
* Smoothing: 1/6 octave
* Frequency Step: 96 ppo
* Start Frequency: 20.0 Hz
*
* Freq(Hz) SPL(dB) Phase(degrees)
20.187378 80.636 -23.3573
20.333664 80.719 -23.7863
20.481010 80.832 -24.3607
20.629424 80.971 -25.0659
20.778913 81.135 -25.8862
20.929486 81.320 -26.8053
21.081150 81.522 -27.8079
21.233912 81.739 -28.8792
21.387782 81.965 -30.0056
21.542767 82.196 -31.1745
21.698874 82.428 -32.3738
21.856113 82.658 -33.5927
22.014492 82.881 -34.8210
22.174018 83.094 -36.0495
22.334700 83.295 -37.2704
22.496546 83.483 -38.4777
22.659566 83.656 -39.6674
22.823766 83.815 -40.8381
22.989157 83.959 -41.9910
23.155745 84.089 -43.1305
23.323542 84.207 -44.2634
23.492554 84.315 -45.3987
23.662790 84.414 -46.5470
23.834261 84.505 -47.7188
24.006973 84.590 -48.9236
24.180938 84.670 -50.1686
24.356163 84.746 -51.4572
24.532658 84.818 -52.7887
24.710431 84.887 -54.1581
24.889493 84.953 -55.5562
25.069853 85.016 -56.9711
25.251519 85.077 -58.3894
25.434502 85.137 -59.7980
25.618811 85.196 -61.1854
25.804456 85.256 -62.5438
25.991445 85.316 -63.8694
26.179790 85.376 -65.1627
26.369500 85.438 -66.4283
26.560584 85.499 -67.6736
26.753053 85.558 -68.9074
26.946917 85.614 -70.1381
27.142185 85.665 -71.3727
27.338869 85.709 -72.6151
27.536977 85.745 -73.8662
27.736522 85.771 -75.1237
27.937512 85.787 -76.3830
28.139959 85.794 -77.6378
28.343872 85.794 -78.8822
28.549264 85.788 -80.1113
28.756143 85.779 -81.3225
28.964522 85.771 -82.5159
29.174411 85.764 -83.6949
29.385821 85.762 -84.8647
29.598763 85.766 -86.0320
29.813248 85.776 -87.2033
30.029287 85.792 -88.3835
30.246891 85.813 -89.5749
30.466073 85.839 -90.7767
30.686842 85.867 -91.9845
30.909212 85.895 -93.1912
31.133193 85.924 -94.3873
31.358797 85.952 -95.5627
31.586035 85.978 -96.7072
31.814921 86.002 -97.8121
32.045465 86.024 -98.8708
32.277680 86.046 -99.8795
32.511577 86.066 -100.8374
32.747169 86.086 -101.7466
32.984469 86.107 -102.6115
33.223488 86.129 -103.4384
33.464239 86.152 -104.2348
33.706735 86.178 -105.0082
33.950987 86.206 -105.7655
34.197010 86.238 -106.5129
34.444816 86.274 -107.2548
34.694417 86.313 -107.9939
34.945827 86.357 -108.7310
35.199059 86.404 -109.4654
35.454126 86.456 -110.1947
35.711041 86.511 -110.9155
35.969818 86.569 -111.6242
36.230470 86.631 -112.3178
36.493011 86.696 -112.9949
36.757455 86.764 -113.6568
37.023814 86.835 -114.3072
37.292104 86.909 -114.9527
37.562338 86.985 -115.6014
37.834530 87.064 -116.2617
38.108695 87.143 -116.9405
38.384846 87.223 -117.6419
38.662999 87.301 -118.3667
38.943167 87.379 -119.1123
39.225365 87.454 -119.8737
39.509608 87.528 -120.6454
39.795911 87.600 -121.4220
40.084289 87.672 -122.1999
40.374756 87.743 -122.9773
40.667328 87.814 -123.7538
40.962020 87.885 -124.5302
41.258848 87.957 -125.3076
41.557827 88.028 -126.0877
41.858972 88.099 -126.8726
42.162299 88.171 -127.6657
42.467824 88.244 -128.4720
42.775564 88.317 -129.2977
43.085533 88.391 -130.1503
43.397749 88.465 -131.0374
43.712227 88.538 -131.9659
44.028983 88.610 -132.9405
44.348036 88.679 -133.9637
44.669400 88.744 -135.0350
44.993093 88.804 -136.1514
45.319131 88.859 -137.3076
45.647532 88.908 -138.4968
45.978313 88.950 -139.7113
46.311491 88.985 -140.9432
46.647083 89.012 -142.1857
46.985107 89.030 -143.4326
47.325581 89.039 -144.6794
47.668521 89.039 -145.9229
48.013947 89.029 -147.1613
48.361876 89.009 -148.3936
48.712326 88.981 -149.6193
49.065315 88.943 -150.8381
49.420863 88.898 -152.0487
49.778987 88.844 -153.2489
50.139706 88.782 -154.4348
50.503039 88.713 -155.6016
50.869005 88.636 -156.7437
51.237623 88.552 -157.8563
51.608912 88.462 -158.9361
51.982891 88.367 -159.9817
52.359580 88.268 -160.9933
52.739000 88.165 -161.9720
53.121168 88.060 -162.9187
53.506106 87.953 -163.8334
53.893833 87.844 -164.7153
54.284370 87.734 -165.5627
54.677737 87.622 -166.3745
55.073955 87.509 -167.1496
55.473043 87.395 -167.8882
55.875024 87.280 -168.5909
56.279917 87.164 -169.2593
56.687745 87.048 -169.8953
57.098527 86.932 -170.5007
57.512287 86.817 -171.0775
57.929045 86.703 -171.6269
58.348822 86.591 -172.1495
58.771642 86.483 -172.6454
59.197525 86.380 -173.1148
59.626495 86.283 -173.5584
60.058573 86.194 -173.9773
60.493782 86.113 -174.3731
60.932145 86.041 -174.7470
61.373685 85.975 -175.0995
61.818424 85.916 -175.4305
62.266386 85.862 -175.7401
62.717593 85.812 -176.0291
63.172071 85.766 -176.2994
63.629842 85.723 -176.5533
64.090930 85.683 -176.7931
64.555359 85.646 -177.0210
65.023154 85.612 -177.2384
65.494339 85.581 -177.4462
65.968938 85.551 -177.6451
66.446976 85.524 -177.8354
66.928478 85.498 -178.0178
67.413469 85.473 -178.1932
67.901975 85.450 -178.3630
68.394021 85.429 -178.5293
68.889632 85.409 -178.6944
69.388835 85.391 -178.8605
69.891655 85.374 -179.0293
70.398118 85.358 -179.2020
70.908252 85.342 -179.3793
71.422083 85.326 -179.5618
71.939636 85.309 -179.7500
72.460941 85.291 -179.9447
72.986023 85.272 179.8530
73.514909 85.251 179.6423
74.047629 85.229 179.4235
74.584208 85.206 179.1972
75.124676 85.181 178.9642
75.669061 85.157 178.7249
76.217390 85.131 178.4786
76.769692 85.104 178.2242
77.325997 85.077 177.9603
77.886333 85.048 177.6856
78.450730 85.019 177.3992
79.019216 84.989 177.1011
79.591822 84.958 176.7922
80.168577 84.927 176.4739
80.749512 84.894 176.1483
81.334656 84.860 175.8173
81.924040 84.826 175.4832
82.517696 84.790 175.1473
83.115653 84.753 174.8109
83.717943 84.715 174.4747
84.324598 84.676 174.1395
84.935649 84.635 173.8060
85.551128 84.592 173.4753
86.171066 84.548 173.1490
86.795497 84.503 172.8287
87.424453 84.457 172.5158
88.057967 84.410 172.2114
88.696071 84.361 171.9160
89.338800 84.312 171.6293
89.986185 84.260 171.3508
90.638262 84.208 171.0794
91.295065 84.155 170.8140
91.956626 84.101 170.5540
92.622982 84.046 170.2996
93.294166 83.991 170.0511
93.970214 83.935 169.8097
94.651161 83.880 169.5765
95.337042 83.824 169.3529
96.027894 83.768 169.1398
96.723752 83.712 168.9375
97.424652 83.655 168.7457
98.130631 83.599 168.5635
98.841726 83.543 168.3904
99.557974 83.487 168.2259
100.279412 83.433 168.0701
101.006078 83.379 167.9232
101.738010 83.327 167.7855
102.475245 83.277 167.6568
103.217823 83.228 167.5369
103.965782 83.181 167.4249
104.719161 83.136 167.3198
105.477999 83.092 167.2205
106.242336 83.050 167.1262
107.012212 83.009 167.0369
107.787666 82.969 166.9532
108.568740 82.931 166.8759
109.355474 82.894 166.8057
110.147909 82.860 166.7425
110.946086 82.828 166.6852
111.750047 82.799 166.6322
112.559834 82.773 166.5820
113.375489 82.750 166.5333
114.197055 82.730 166.4857
115.024574 82.712 166.4389
115.858089 82.697 166.3921
116.697645 82.684 166.3439
117.543284 82.673 166.2922
118.395051 82.663 166.2343
119.252990 82.654 166.1676
120.117147 82.646 166.0902
120.987565 82.640 166.0014
121.864291 82.634 165.9015
122.747370 82.628 165.7916
123.636848 82.623 165.6729
124.532771 82.618 165.5459
125.435187 82.613 165.4108
126.344142 82.606 165.2669
127.259684 82.600 165.1139
128.181860 82.591 164.9514
129.110718 82.582 164.7795
130.046308 82.571 164.5980
130.988677 82.557 164.4069
131.937875 82.542 164.2061
132.893951 82.524 163.9951
133.856956 82.502 163.7737
134.826938 82.477 163.5422
135.803950 82.449 163.3016
136.788041 82.416 163.0540
137.779264 82.379 162.8022
138.777669 82.338 162.5493
139.783309 82.291 162.2982
140.796237 82.241 162.0515
141.816504 82.186 161.8114
142.844165 82.127 161.5796
143.879273 82.065 161.3575
144.921881 81.999 161.1464
145.972045 81.929 160.9472
147.029819 81.856 160.7610
148.095257 81.780 160.5891
149.168417 81.701 160.4330
150.249353 81.620 160.2949
151.338121 81.536 160.1776
152.434780 81.451 160.0844
153.539385 81.364 160.0185
154.651995 81.276 159.9828
155.772667 81.189 159.9789
156.901460 81.101 160.0080
158.038432 81.013 160.0705
159.183644 80.927 160.1669
160.337154 80.842 160.2975
161.499023 80.759 160.4620
162.669312 80.678 160.6597
163.848081 80.599 160.8886
165.035392 80.522 161.1459
166.231306 80.449 161.4282
167.435887 80.378 161.7325
168.649196 80.310 162.0559
169.871298 80.246 162.3966
171.102255 80.186 162.7531
172.342133 80.129 163.1247
173.590995 80.078 163.5106
174.848907 80.031 163.9097
176.115934 79.989 164.3207
177.392143 79.951 164.7406
178.677599 79.919 165.1658
179.972371 79.891 165.5922
181.276525 79.867 166.0156
182.590129 79.848 166.4328
183.913252 79.833 166.8414
185.245964 79.821 167.2397
186.588332 79.813 167.6263
187.940428 79.808 168.0002
189.302322 79.806 168.3606
190.674085 79.806 168.7070
192.055788 79.807 169.0391
193.447503 79.810 169.3563
194.849303 79.813 169.6578
196.261262 79.817 169.9421
197.683452 79.822 170.2078
199.115948 79.827 170.4532
200.558824 79.833 170.6772
202.012156 79.839 170.8795
203.476019 79.844 171.0609
204.950490 79.851 171.2231
206.435646 79.857 171.3684
207.931564 79.864 171.4989
209.438322 79.870 171.6167
210.955998 79.877 171.7242
212.484672 79.883 171.8244
214.024424 79.889 171.9202
215.575333 79.894 172.0143
217.137481 79.899 172.1093
218.710948 79.904 172.2068
220.295818 79.909 172.3079
221.892172 79.913 172.4128
223.500094 79.918 172.5206
225.119668 79.922 172.6296
226.750978 79.926 172.7379
228.394109 79.931 172.8436
230.049147 79.935 172.9456
231.716178 79.941 173.0434
233.395289 79.948 173.1377
235.086567 79.956 173.2301
236.790102 79.967 173.3231
238.505980 79.980 173.4197
240.234293 79.995 173.5231
241.975130 80.013 173.6356
243.728581 80.033 173.7589
245.494739 80.056 173.8934
247.273695 80.081 174.0385
249.065542 80.108 174.1929
250.870374 80.137 174.3543
252.688284 80.167 174.5199
254.519367 80.199 174.6865
256.363720 80.233 174.8507
258.221437 80.267 175.0093
260.092616 80.303 175.1590
261.977354 80.340 175.2968
263.875750 80.379 175.4201
265.787903 80.418 175.5267
267.713911 80.458 175.6155
269.653877 80.499 175.6854
271.607900 80.541 175.7360
273.576083 80.583 175.7670
275.558528 80.624 175.7782
277.555338 80.666 175.7697
279.566619 80.707 175.7418
281.592474 80.747 175.6950
283.633009 80.787 175.6301
285.688331 80.825 175.5480
287.758546 80.862 175.4498
289.843763 80.897 175.3372
291.944090 80.930 175.2122
294.059638 80.960 175.0772
296.190515 80.988 174.9353
298.336833 81.013 174.7896
300.498705 81.034 174.6436
302.676243 81.053 174.5013
304.869559 81.068 174.3665
307.078770 81.080 174.2428
309.303989 81.090 174.1335
311.545334 81.098 174.0420
313.802919 81.103 173.9711
316.076865 81.106 173.9234
318.367288 81.108 173.9008
320.674309 81.108 173.9044
322.998047 81.108 173.9344
325.338624 81.108 173.9899
327.696162 81.108 174.0695
330.070783 81.108 174.1713
332.462612 81.109 174.2935
334.871773 81.111 174.4338
337.298392 81.114 174.5904
339.742595 81.118 174.7610
342.204510 81.124 174.9436
344.684265 81.131 175.1364
347.181989 81.141 175.3377
349.697813 81.152 175.5461
352.231868 81.165 175.7603
354.784285 81.180 175.9788
357.355198 81.197 176.2004
359.944741 81.215 176.4245
362.553049 81.236 176.6500
365.180258 81.258 176.8759
367.826505 81.281 177.1006
370.491927 81.307 177.3222
373.176665 81.334 177.5382
375.880856 81.364 177.7464
378.604644 81.396 177.9445
381.348169 81.429 178.1309
384.111575 81.466 178.3046
386.895006 81.504 178.4648
389.698607 81.545 178.6111
392.522524 81.587 178.7430
395.366904 81.632 178.8602
398.231895 81.679 178.9620
401.117648 81.728 179.0477
404.024312 81.777 179.1162
406.952038 81.828 179.1660
409.900981 81.879 179.1949
412.871292 81.930 179.2009
415.863128 81.981 179.1817
418.876643 82.031 179.1352
421.911996 82.079 179.0600
424.969344 82.126 178.9552
428.048847 82.171 178.8205
431.150666 82.213 178.6565
434.274961 82.253 178.4638
437.421897 82.289 178.2438
440.591636 82.321 177.9977
443.784345 82.350 177.7269
447.000189 82.375 177.4326
450.239337 82.397 177.1164
453.501956 82.414 176.7799
456.788219 82.427 176.4249
460.098294 82.435 176.0533
463.432356 82.440 175.6672
466.790578 82.441 175.2686
470.173135 82.437 174.8597
473.580203 82.429 174.4429
477.011961 82.417 174.0208
480.468586 82.400 173.5961
483.950259 82.379 173.1720
487.457163 82.353 172.7518
490.989478 82.323 172.3392
494.547390 82.289 171.9379
498.131084 82.251 171.5516
501.740748 82.210 171.1841
505.376568 82.165 170.8388
509.038735 82.118 170.5189
512.727439 82.069 170.2272
516.442874 82.019 169.9657
520.185232 81.968 169.7358
523.954708 81.919 169.5379
527.751500 81.870 169.3716
531.575805 81.824 169.2357
535.427822 81.780 169.1282
539.307753 81.740 169.0464
543.215800 81.703 168.9873
547.152165 81.671 168.9472
551.117055 81.642 168.9224
555.110677 81.618 168.9092
559.133237 81.597 168.9037
563.184947 81.581 168.9026
567.266018 81.568 168.9028
571.376661 81.558 168.9016
575.517092 81.551 168.8965
579.687526 81.546 168.8857
583.888181 81.543 168.8676
588.119275 81.542 168.8410
592.381030 81.541 168.8049
596.673667 81.540 168.7584
600.997410 81.538 168.7011
605.352485 81.536 168.6325
609.739119 81.532 168.5522
614.157540 81.526 168.4600
618.607979 81.518 168.3560
623.090667 81.506 168.2405
627.605839 81.492 168.1139
632.153730 81.474 167.9771
636.734576 81.452 167.8313
641.348617 81.425 167.6780
645.996094 81.394 167.5189
650.677248 81.357 167.3560
655.392323 81.315 167.1913
660.141566 81.267 167.0274
664.925224 81.214 166.8670
669.743546 81.154 166.7130
674.596784 81.088 166.5687
679.485191 81.015 166.4379
684.409020 80.936 166.3247
689.368530 80.850 166.2338
694.363979 80.757 166.1702
699.395626 80.657 166.1398
704.463736 80.551 166.1490
709.568570 80.438 166.2048
714.710396 80.319 166.3148
719.889483 80.195 166.4870
725.106099 80.065 166.7293
730.360516 79.932 167.0493
735.653010 79.796 167.4531
740.983855 79.659 167.9452
746.353329 79.523 168.5272
751.761713 79.391 169.1975
757.209288 79.264 169.9507
762.696339 79.144 170.7781
768.223151 79.033 171.6678
773.790013 78.933 172.6061
779.397214 78.843 173.5784
785.045047 78.765 174.5704
790.733808 78.698 175.5690
796.463791 78.643 176.5630
802.235296 78.598 177.5436
808.048623 78.563 178.5039
813.904077 78.537 179.4390
819.801961 78.519 -179.6545
825.742584 78.509 -178.7789
831.726255 78.507 -177.9358
837.753287 78.511 -177.1266
843.823992 78.522 -176.3523
849.938689 78.538 -175.6140
856.097695 78.559 -174.9127
862.301332 78.585 -174.2490
868.549922 78.614 -173.6232
874.843793 78.647 -173.0347
881.183272 78.681 -172.4821
887.568689 78.717 -171.9633
894.000378 78.755 -171.4756
900.478673 78.793 -171.0159
907.003913 78.831 -170.5810
913.576437 78.870 -170.1680
920.196588 78.909 -169.7743
926.864712 78.949 -169.3973
933.581156 78.988 -169.0345
940.346270 79.028 -168.6834
947.160407 79.068 -168.3406
954.023921 79.109 -168.0026
960.937172 79.151 -167.6656
967.900519 79.195 -167.3262
974.914325 79.241 -166.9822
981.978956 79.291 -166.6338
989.094780 79.345 -166.2838
996.262169 79.404 -165.9376
1003.481495 79.469 -165.6031
1010.753136 79.539 -165.2892
1018.077470 79.614 -165.0051
1025.454879 79.692 -164.7583
1032.885748 79.773 -164.5547
1040.370463 79.854 -164.3977
1047.909417 79.935 -164.2875
1055.503000 80.012 -164.2218
1063.151610 80.085 -164.1957
1070.855645 80.153 -164.2023
1078.615506 80.214 -164.2326
1086.431599 80.267 -164.2768
1094.304330 80.313 -164.3247
1102.234110 80.351 -164.3661
1110.221353 80.382 -164.3917
1118.266475 80.405 -164.3930
1126.369895 80.422 -164.3628
1134.532035 80.432 -164.2949
1142.753322 80.438 -164.1841
1151.034184 80.439 -164.0254
1159.375052 80.436 -163.8142
1167.776361 80.431 -163.5455
1176.238550 80.424 -163.2139
1184.762060 80.416 -162.8138
1193.347334 80.409 -162.3399
1201.994821 80.406 -161.7878
1210.704971 80.407 -161.1553
1219.478238 80.416 -160.4436
1228.315080 80.436 -159.6586
1237.215957 80.468 -158.8121
1246.181334 80.515 -157.9220
1255.211678 80.578 -157.0111
1264.307459 80.658 -156.1047
1273.469152 80.753 -155.2283
1282.697235 80.861 -154.4047
1291.992188 80.982 -153.6523
1301.354495 81.111 -152.9844
1310.784647 81.246 -152.4091
1320.283132 81.385 -151.9303
1329.850448 81.525 -151.5477
1339.487093 81.664 -151.2586
1349.193569 81.799 -151.0580
1358.970381 81.930 -150.9395
1368.818041 82.055 -150.8956
1378.737061 82.172 -150.9179
1388.727958 82.281 -150.9974
1398.791253 82.381 -151.1239
1408.927471 82.470 -151.2861
1419.137140 82.549 -151.4713
1429.420793 82.618 -151.6653
1439.778965 82.675 -151.8526
1450.212197 82.723 -152.0173
1460.721033 82.763 -152.1444
1471.306019 82.796 -152.2214
1481.967709 82.825 -152.2405
1492.706658 82.851 -152.2000
1503.523426 82.878 -152.1042
1514.418576 82.905 -151.9621
1525.392678 82.934 -151.7856
1536.446302 82.964 -151.5865
1547.580025 82.994 -151.3755
1558.794428 83.022 -151.1598
1570.090095 83.048 -150.9428
1581.467615 83.069 -150.7242
1592.927581 83.085 -150.5004
1604.470591 83.093 -150.2651
1616.097246 83.095 -150.0114
1627.808153 83.090 -149.7316
1639.603922 83.078 -149.4185
1651.485168 83.060 -149.0656
1663.452510 83.037 -148.6669
1675.506573 83.011 -148.2172
1687.647984 82.981 -147.7132
1699.877377 82.952 -147.1541
1712.195390 82.923 -146.5434
1724.602663 82.898 -145.8894
1737.099845 82.878 -145.2059
1749.687587 82.864 -144.5099
1762.366544 82.855 -143.8200
1775.137379 82.851 -143.1533
1788.000756 82.851 -142.5238
1800.957346 82.852 -141.9406
1814.007826 82.852 -141.4075
1827.152874 82.848 -140.9229
1840.393177 82.838 -140.4804
1853.729425 82.821 -140.0692
1867.162312 82.794 -139.6759
1880.692540 82.756 -139.2853
1894.320813 82.708 -138.8820
1908.047843 82.649 -138.4507
1921.874344 82.580 -137.9777
1935.801038 82.502 -137.4510
1949.828650 82.416 -136.8610
1963.957912 82.325 -136.2009
1978.189561 82.229 -135.4677
1992.524338 82.131 -134.6626
2006.962991 82.034 -133.7906
2021.506272 81.938 -132.8606
2036.154940 81.845 -131.8830
2050.909758 81.756 -130.8688
2065.771495 81.672 -129.8288
2080.740927 81.593 -128.7728
2095.818833 81.519 -127.7099
2111.006001 81.450 -126.6483
2126.303220 81.386 -125.5951
2141.711290 81.326 -124.5561
2157.231013 81.270 -123.5354
2172.863198 81.217 -122.5350
2188.608660 81.166 -121.5552
2204.468221 81.117 -120.5950
2220.442706 81.069 -119.6532
2236.532950 81.022 -118.7286
2252.739789 80.975 -117.8207
2269.064070 80.929 -116.9296
2285.506644 80.883 -116.0559
2302.068367 80.836 -115.2005
2318.750104 80.787 -114.3640
2335.552723 80.737 -113.5467
2352.477101 80.683 -112.7472
2369.524119 80.625 -111.9611
2386.694668 80.561 -111.1800
2403.989641 80.491 -110.3908
2421.409941 80.411 -109.5748
2438.956476 80.323 -108.7087
2456.630160 80.226 -107.7649
2474.431915 80.122 -106.7129
2492.362668 80.012 -105.5200
2510.423356 79.900 -104.1537
2528.614918 79.791 -102.5844
2546.938304 79.689 -100.7909
2565.394469 79.604 -98.7668
2583.984375 79.542 -96.5274
2602.708991 79.510 -94.1120
2621.569293 79.513 -91.5819
2640.566265 79.553 -89.0106
2659.700897 79.629 -86.4716
2678.974186 79.738 -84.0264
2698.387137 79.875 -81.7172
2717.940763 80.033 -79.5659
2737.636082 80.208 -77.5769
2757.474121 80.394 -75.7431
2777.455915 80.588 -74.0519
2797.582506 80.787 -72.4892
2817.854942 80.989 -71.0423
2838.274281 81.191 -69.7008
2858.841586 81.392 -68.4556
2879.557931 81.590 -67.2981
2900.424394 81.782 -66.2181
2921.442065 81.969 -65.2037
2942.612039 82.148 -64.2417
2963.935418 82.319 -63.3180
2985.413316 82.483 -62.4197
3007.046852 82.639 -61.5363
3028.837153 82.788 -60.6613
3050.785356 82.931 -59.7927
3072.892604 83.069 -58.9324
3095.160050 83.202 -58.0857
3117.588856 83.329 -57.2587
3140.180190 83.451 -56.4573
3162.935230 83.566 -55.6871
3185.855163 83.675 -54.9533
3208.941182 83.776 -54.2618
3232.194493 83.868 -53.6202
3255.616307 83.952 -53.0365
3279.207844 84.025 -52.5192
3302.970336 84.084 -52.0738
3326.905021 84.127 -51.7011
3351.013146 84.150 -51.3936
3375.295969 84.150 -51.1338
3399.754755 84.123 -50.8927
3424.390779 84.066 -50.6293
3449.205326 83.977 -50.2906
3474.199690 83.856 -49.8128
3499.375173 83.704 -49.1236
3524.733088 83.525 -48.1481
3550.274757 83.327 -46.8180
3576.001511 83.120 -45.0855
3601.914692 82.918 -42.9380
3628.015651 82.734 -40.4073
3654.305748 82.581 -37.5668
3680.786354 82.469 -34.5163
3707.458849 82.403 -31.3598
3734.324624 82.386 -28.1875
3761.385080 82.419 -25.0702
3788.641627 82.498 -22.0629
3816.095686 82.622 -19.2119
3843.748688 82.785 -16.5585
3871.602076 82.982 -14.1352
3899.657300 83.206 -11.9616
3927.915825 83.450 -10.0439
3956.379122 83.707 -8.3784
3985.048676 83.972 -6.9569
4013.925981 84.238 -5.7705
4043.012544 84.502 -4.8098
4072.309879 84.757 -4.0624
4101.819515 84.998 -3.5110
4131.542990 85.223 -3.1321
4161.481854 85.426 -2.8976
4191.637667 85.607 -2.7774
4222.012001 85.764 -2.7425
4252.606441 85.897 -2.7671
4283.422580 86.006 -2.8296
4314.462026 86.089 -2.9113
4345.726396 86.148 -2.9951
4377.217321 86.183 -3.0641
4408.936442 86.192 -3.1010
4440.885413 86.178 -3.0884
4473.065899 86.140 -3.0108
4505.479579 86.081 -2.8559
4538.128141 86.003 -2.6157
4571.013288 85.907 -2.2857
4604.136735 85.794 -1.8640
4637.500207 85.666 -1.3486
4671.105446 85.523 -0.7354
4704.954201 85.366 -0.0176
4739.048239 85.196 0.8133
4773.389336 85.014 1.7673
4807.979283 84.821 2.8546
4842.819883 84.620 4.0853
4877.912952 84.413 5.4696
4913.260320 84.202 7.0167
4948.863830 83.990 8.7332
4984.725337 83.782 10.6217
5020.846712 83.579 12.6804
5057.229836 83.386 14.9030
5093.876609 83.206 17.2807
5130.788938 83.042 19.8015
5167.968750 82.898 22.4503
5205.417982 82.776 25.2080
5243.138586 82.678 28.0504
5281.132530 82.606 30.9496
5319.401793 82.562 33.8747
5357.948371 82.545 36.7934
5396.774274 82.556 39.6721
5435.881525 82.592 42.4760
5475.272163 82.652 45.1689
5514.948243 82.734 47.7155
5554.911831 82.832 50.0831
5595.165012 82.941 52.2452
5635.709884 83.058 54.1835
5676.548561 83.174 55.8880
5717.683172 83.286 57.3569
5759.115861 83.386 58.5950
5800.848789 83.469 59.6124
5842.884130 83.531 60.4248
5885.224077 83.564 61.0530
5927.870837 83.565 61.5235
5970.826633 83.529 61.8685
6014.093704 83.452 62.1250
6057.674306 83.331 62.3349
6101.570711 83.164 62.5433
6145.785208 82.948 62.7985
6190.320101 82.685 63.1512
6235.177712 82.372 63.6547
6280.360380 82.013 64.3647
6325.870460 81.609 65.3395
6371.710325 81.162 66.6394
6417.882365 80.676 68.3280
6464.388986 80.157 70.4729
6511.232613 79.610 73.1472
6558.415689 79.041 76.4278
6605.940673 78.460 80.3918
6653.810042 77.876 85.1113
6702.026292 77.298 90.6453
6750.591937 76.739 97.0301
6799.509509 76.210 104.2678
6848.781558 75.722 112.3136
6898.410653 75.287 121.0680
6948.399380 74.912 130.3794
6998.750346 74.607 140.0581
7049.466176 74.374 149.9041
7100.549514 74.218 159.7358
7152.003023 74.136 169.4123
7203.829385 74.127 178.8405
7256.031302 74.187 -172.0327
7308.611496 74.311 -163.2366
7361.572708 74.493 -154.7980
7414.917698 74.727 -146.7567
7468.649249 75.007 -139.1698
7522.770160 75.325 -132.1031
7577.283253 75.673 -125.6109
7632.191371 76.041 -119.7182
7687.497376 76.419 -114.4085
7743.204151 76.798 -109.6235
7799.314600 77.169 -105.2689
7855.831649 77.528 -101.2216
7912.758244 77.871 -97.3334
7970.097352 78.197 -93.4304
8027.851962 78.512 -89.3130
8086.025087 78.824 -84.7634
8144.619758 79.143 -79.5705
8203.639030 79.486 -73.5869
8263.085980 79.864 -66.8197
8322.963708 80.289 -59.5163
8383.275334 80.763 -52.1597
8444.024002 81.278 -45.3181
8505.212881 81.820 -39.4316
8566.845160 82.371 -34.6955
8628.924051 82.911 -31.0841
8691.452792 83.423 -28.4425
8754.434642 83.892 -26.5676
8817.872884 84.309 -25.2559
8881.770826 84.669 -24.3234
8946.131799 84.968 -23.6107
9010.959157 85.208 -22.9828
9076.256282 85.392 -22.3269
9142.026576 85.525 -21.5521
9208.273470 85.615 -20.5880
9275.000415 85.669 -19.3849
9342.210891 85.696 -17.9117
9409.908403 85.703 -16.1544
9478.096478 85.698 -14.1130
9546.778672 85.687 -11.7983
9615.958566 85.674 -9.2296
9685.639765 85.666 -6.4343
9755.825904 85.666 -3.4502
9826.520640 85.677 -0.3267
9897.727659 85.702 2.8778
9969.450674 85.742 6.1024
10041.693423 85.794 9.2903
10114.459673 85.859 12.3928
10187.753217 85.933 15.3724
10261.577877 86.012 18.2013
10335.937500 86.094 20.8603
10410.835964 86.176 23.3360
10486.277173 86.254 25.6189
10562.265060 86.325 27.7021
10638.803587 86.386 29.5807
10715.896743 86.433 31.2515
10793.548548 86.464 32.7126
10871.763050 86.475 33.9631
10950.544327 86.463 35.0045
11029.896485 86.422 35.8409
11109.823662 86.350 36.4814
11190.330024 86.240 36.9404
11271.419768 86.089 37.2402
11353.097122 85.892 37.4108
11435.366344 85.645 37.4891
11518.231722 85.345 37.5170
11601.697577 84.990 37.5381
11685.768261 84.580 37.5952
11770.448155 84.115 37.7267
11855.741674 83.596 37.9648
11941.653265 83.026 38.3326
12028.187408 82.406 38.8423
12115.348612 81.741 39.4929
12203.141422 81.032 40.2685
12291.570415 80.283 41.1355
12380.640201 79.498 42.0397
12470.355424 78.679 42.9038
12560.720760 77.829 43.6241
12651.740920 76.953 44.0673
12743.420650 76.053 44.0648
12835.764729 75.135 43.4060
12928.777972 74.206 41.8254
13022.465227 73.278 38.9915
13116.831378 72.365 34.5107
13211.881345 71.494 28.0032
13307.620084 70.698 19.3407
13404.052584 70.019 9.0548
13501.183875 69.501 -1.4938
13599.019019 69.179 -10.7275
13697.563116 69.066 -17.7307
13796.821305 69.148 -22.4197
13896.798760 69.391 -25.1544
13997.500692 69.749 -26.3890
14098.932352 70.182 -26.5205
14201.099028 70.655 -25.8566
14304.006046 71.144 -24.6248
14407.658770 71.633 -22.9908
14512.062604 72.112 -21.0770
14617.222992 72.577 -18.9760
14723.145416 73.025 -16.7611
14829.835397 73.455 -14.4930
14937.298497 73.867 -12.2240
15045.540320 74.262 -9.9999
15154.566507 74.641 -7.8610
15264.382743 75.002 -5.8424
15374.994752 75.347 -3.9740
15486.408302 75.675 -2.2802
15598.629201 75.986 -0.7810
15711.663298 76.278 0.5077
15825.516487 76.552 1.5729
15940.194703 76.806 2.4047
16055.703925 77.040 2.9950
16172.050174 77.252 3.3387
16289.239516 77.442 3.4337
16407.278061 77.608 3.2809
16526.171961 77.751 2.8843
16645.927415 77.869 2.2489
16766.550667 77.966 1.3789
16888.048005 78.043 0.2747
17010.425762 78.103 -1.0693
17133.690320 78.149 -2.6649
17257.848103 78.183 -4.5293
17382.905584 78.207 -6.6825
17508.869284 78.225 -9.1438
17635.745768 78.236 -11.9294
17763.541652 78.247 -15.0520
17892.263597 78.262 -18.5239
18021.918315 78.294 -22.3633
18152.512564 78.353 -26.6046
18284.053153 78.454 -31.3095
18416.546939 78.608 -36.5752
18550.000830 78.819 -42.5348
18684.421783 79.082 -49.3440
18819.816805 79.385 -57.1477
18956.192956 79.707 -66.0190
19093.557344 80.028 -75.8658
19231.917131 80.329 -86.3313
19371.279531 80.595 -96.7601
19511.651807 80.813 -106.3077
19653.041280 80.979 -114.1559
19795.455318 81.090 -119.6882
19938.901348 81.145 -122.5355
