* Measurement data measured by REW V5.31.3
* Source: EXCL: Headset (USB-C to 3.5mm Headphone Jack Adapter), MICROPHONE (Master Volume), 0, volume: 0.750
* Format: 256k Log Swept Sine, 1 sweep at -12.0 dBFS with no timing reference
* Dated: Apr 1, 2025 10:29:37 PM
* REW Settings:
*  C-weighting compensation: Off
*  Target level: 75.0 dB
* Note: ; 
* Measurement: Satyr 3 (Massive Mod) L1
* Smoothing: 1/6 octave
* Frequency Step: 96 ppo
* Start Frequency: 20.0 Hz
*
* Freq(Hz) SPL(dB) Phase(degrees)
20.187378 87.156 -105.7047
20.333664 87.188 -105.8084
20.481010 87.232 -105.9472
20.629424 87.286 -106.1171
20.778913 87.349 -106.3140
20.929486 87.421 -106.5344
21.081150 87.501 -106.7754
21.233912 87.586 -107.0347
21.387782 87.676 -107.3109
21.542767 87.770 -107.6029
21.698874 87.866 -107.9101
21.856113 87.964 -108.2319
22.014492 88.061 -108.5680
22.174018 88.157 -108.9178
22.334700 88.251 -109.2813
22.496546 88.343 -109.6584
22.659566 88.431 -110.0495
22.823766 88.515 -110.4555
22.989157 88.595 -110.8780
23.155745 88.671 -111.3188
23.323542 88.742 -111.7802
23.492554 88.809 -112.2645
23.662790 88.871 -112.7735
23.834261 88.929 -113.3080
24.006973 88.981 -113.8678
24.180938 89.029 -114.4507
24.356163 89.073 -115.0528
24.532658 89.111 -115.6681
24.710431 89.144 -116.2893
24.889493 89.173 -116.9078
25.069853 89.199 -117.5149
25.251519 89.220 -118.1019
25.434502 89.240 -118.6617
25.618811 89.257 -119.1887
25.804456 89.274 -119.6800
25.991445 89.290 -120.1352
26.179790 89.307 -120.5567
26.369500 89.324 -120.9489
26.560584 89.342 -121.3180
26.753053 89.360 -121.6709
26.946917 89.378 -122.0147
27.142185 89.396 -122.3559
27.338869 89.413 -122.7001
27.536977 89.429 -123.0511
27.736522 89.444 -123.4118
27.937512 89.458 -123.7833
28.139959 89.471 -124.1656
28.343872 89.484 -124.5577
28.549264 89.497 -124.9577
28.756143 89.511 -125.3628
28.964522 89.526 -125.7697
29.174411 89.543 -126.1747
29.385821 89.562 -126.5737
29.598763 89.583 -126.9630
29.813248 89.607 -127.3393
30.029287 89.634 -127.7007
30.246891 89.664 -128.0471
30.466073 89.698 -128.3802
30.686842 89.736 -128.7039
30.909212 89.778 -129.0240
31.133193 89.824 -129.3475
31.358797 89.875 -129.6818
31.586035 89.929 -130.0338
31.814921 89.988 -130.4088
32.045465 90.050 -130.8105
32.277680 90.116 -131.2398
32.511577 90.185 -131.6958
32.747169 90.257 -132.1756
32.984469 90.332 -132.6748
33.223488 90.410 -133.1886
33.464239 90.491 -133.7117
33.706735 90.573 -134.2391
33.950987 90.658 -134.7661
34.197010 90.744 -135.2884
34.444816 90.830 -135.8021
34.694417 90.917 -136.3042
34.945827 91.003 -136.7921
35.199059 91.088 -137.2644
35.454126 91.173 -137.7205
35.711041 91.256 -138.1608
35.969818 91.338 -138.5864
36.230470 91.418 -138.9989
36.493011 91.497 -139.4001
36.757455 91.573 -139.7915
37.023814 91.647 -140.1743
37.292104 91.718 -140.5496
37.562338 91.787 -140.9182
37.834530 91.852 -141.2813
38.108695 91.914 -141.6400
38.384846 91.973 -141.9961
38.662999 92.029 -142.3511
38.943167 92.081 -142.7062
39.225365 92.131 -143.0621
39.509608 92.178 -143.4182
39.795911 92.223 -143.7731
40.084289 92.266 -144.1249
40.374756 92.308 -144.4712
40.667328 92.350 -144.8103
40.962020 92.392 -145.1415
41.258848 92.434 -145.4656
41.557827 92.477 -145.7845
41.858972 92.522 -146.1018
42.162299 92.566 -146.4214
42.467824 92.612 -146.7475
42.775564 92.657 -147.0835
43.085533 92.702 -147.4325
43.397749 92.746 -147.7961
43.712227 92.790 -148.1755
44.028983 92.834 -148.5705
44.348036 92.877 -148.9802
44.669400 92.918 -149.4027
44.993093 92.959 -149.8352
45.319131 92.998 -150.2738
45.647532 93.035 -150.7144
45.978313 93.070 -151.1524
46.311491 93.102 -151.5840
46.647083 93.132 -152.0061
46.985107 93.159 -152.4171
47.325581 93.184 -152.8165
47.668521 93.207 -153.2051
48.013947 93.228 -153.5848
48.361876 93.248 -153.9583
48.712326 93.266 -154.3283
49.065315 93.283 -154.6977
49.420863 93.298 -155.0689
49.778987 93.311 -155.4436
50.139706 93.322 -155.8226
50.503039 93.331 -156.2067
50.869005 93.338 -156.5964
51.237623 93.343 -156.9929
51.608912 93.348 -157.3975
51.982891 93.351 -157.8117
52.359580 93.353 -158.2363
52.739000 93.354 -158.6709
53.121168 93.354 -159.1140
53.506106 93.352 -159.5631
53.893833 93.349 -160.0155
54.284370 93.344 -160.4690
54.677737 93.339 -160.9219
55.073955 93.333 -161.3736
55.473043 93.327 -161.8237
55.875024 93.323 -162.2723
56.279917 93.320 -162.7191
56.687745 93.319 -163.1636
57.098527 93.321 -163.6051
57.512287 93.325 -164.0428
57.929045 93.331 -164.4759
58.348822 93.340 -164.9040
58.771642 93.350 -165.3265
59.197525 93.360 -165.7427
59.626495 93.370 -166.1516
60.058573 93.379 -166.5522
60.493782 93.386 -166.9437
60.932145 93.393 -167.3266
61.373685 93.398 -167.7023
61.818424 93.404 -168.0736
62.266386 93.411 -168.4433
62.717593 93.420 -168.8135
63.172071 93.431 -169.1859
63.629842 93.443 -169.5613
64.090930 93.458 -169.9399
64.555359 93.475 -170.3217
65.023154 93.493 -170.7063
65.494339 93.512 -171.0932
65.968938 93.533 -171.4812
66.446976 93.553 -171.8694
66.928478 93.574 -172.2566
67.413469 93.594 -172.6420
67.901975 93.613 -173.0253
68.394021 93.632 -173.4064
68.889632 93.649 -173.7855
69.388835 93.664 -174.1631
69.891655 93.678 -174.5394
70.398118 93.690 -174.9146
70.908252 93.699 -175.2888
71.422083 93.707 -175.6617
71.939636 93.711 -176.0330
72.460941 93.713 -176.4026
72.986023 93.712 -176.7701
73.514909 93.709 -177.1353
74.047629 93.703 -177.4981
74.584208 93.694 -177.8586
75.124676 93.682 -178.2165
75.669061 93.668 -178.5716
76.217390 93.651 -178.9232
76.769692 93.632 -179.2707
77.325997 93.611 -179.6133
77.886333 93.587 -179.9504
78.450730 93.561 179.7183
79.019216 93.533 179.3931
79.591822 93.504 179.0737
80.168577 93.473 178.7601
80.749512 93.442 178.4518
81.334656 93.409 178.1480
81.924040 93.375 177.8481
82.517696 93.341 177.5513
83.115653 93.307 177.2569
83.717943 93.272 176.9644
84.324598 93.237 176.6733
84.935649 93.202 176.3836
85.551128 93.166 176.0953
86.171066 93.131 175.8086
86.795497 93.095 175.5240
87.424453 93.060 175.2420
88.057967 93.025 174.9633
88.696071 92.989 174.6885
89.338800 92.954 174.4181
89.986185 92.918 174.1523
90.638262 92.883 173.8911
91.295065 92.847 173.6347
91.956626 92.810 173.3831
92.622982 92.773 173.1362
93.294166 92.736 172.8941
93.970214 92.698 172.6568
94.651161 92.660 172.4241
95.337042 92.622 172.1959
96.027894 92.584 171.9721
96.723752 92.547 171.7525
97.424652 92.510 171.5370
98.130631 92.473 171.3255
98.841726 92.437 171.1177
99.557974 92.402 170.9133
100.279412 92.368 170.7120
101.006078 92.335 170.5136
101.738010 92.303 170.3178
102.475245 92.272 170.1246
103.217823 92.243 169.9340
103.965782 92.215 169.7462
104.719161 92.188 169.5611
105.477999 92.163 169.3787
106.242336 92.139 169.1985
107.012212 92.116 169.0203
107.787666 92.094 168.8434
108.568740 92.074 168.6678
109.355474 92.054 168.4935
110.147909 92.036 168.3206
110.946086 92.018 168.1492
111.750047 92.001 167.9793
112.559834 91.984 167.8109
113.375489 91.968 167.6436
114.197055 91.952 167.4772
115.024574 91.936 167.3112
115.858089 91.920 167.1455
116.697645 91.905 166.9800
117.543284 91.889 166.8147
118.395051 91.873 166.6497
119.252990 91.857 166.4849
120.117147 91.841 166.3201
120.987565 91.825 166.1555
121.864291 91.809 165.9914
122.747370 91.793 165.8282
123.636848 91.776 165.6667
124.532771 91.759 165.5077
125.435187 91.741 165.3519
126.344142 91.722 165.1998
127.259684 91.702 165.0516
128.181860 91.680 164.9070
129.110718 91.657 164.7653
130.046308 91.632 164.6254
130.988677 91.606 164.4862
131.937875 91.577 164.3467
132.893951 91.547 164.2067
133.856956 91.514 164.0661
134.826938 91.480 163.9257
135.803950 91.444 163.7865
136.788041 91.405 163.6504
137.779264 91.365 163.5192
138.777669 91.324 163.3950
139.783309 91.281 163.2794
140.796237 91.237 163.1743
141.816504 91.192 163.0807
142.844165 91.146 162.9990
143.879273 91.101 162.9290
144.921881 91.055 162.8694
145.972045 91.009 162.8185
147.029819 90.963 162.7742
148.095257 90.918 162.7345
149.168417 90.873 162.6975
150.249353 90.827 162.6619
151.338121 90.782 162.6270
152.434780 90.737 162.5923
153.539385 90.691 162.5586
154.651995 90.645 162.5267
155.772667 90.599 162.4983
156.901460 90.552 162.4750
158.038432 90.505 162.4587
159.183644 90.457 162.4512
160.337154 90.409 162.4541
161.499023 90.361 162.4691
162.669312 90.313 162.4973
163.848081 90.266 162.5400
165.035392 90.218 162.5980
166.231306 90.171 162.6719
167.435887 90.126 162.7620
168.649196 90.082 162.8681
169.871298 90.039 162.9896
171.102255 90.000 163.1255
172.342133 89.963 163.2746
173.590995 89.929 163.4351
174.848907 89.898 163.6047
176.115934 89.871 163.7808
177.392143 89.847 163.9601
178.677599 89.827 164.1392
179.972371 89.809 164.3145
181.276525 89.795 164.4827
182.590129 89.783 164.6411
183.913252 89.773 164.7870
185.245964 89.765 164.9191
186.588332 89.758 165.0361
187.940428 89.752 165.1375
189.302322 89.747 165.2232
190.674085 89.741 165.2934
192.055788 89.736 165.3486
193.447503 89.730 165.3893
194.849303 89.724 165.4163
196.261262 89.717 165.4301
197.683452 89.710 165.4316
199.115948 89.702 165.4220
200.558824 89.693 165.4026
202.012156 89.683 165.3748
203.476019 89.672 165.3395
204.950490 89.660 165.2975
206.435646 89.648 165.2495
207.931564 89.634 165.1967
209.438322 89.620 165.1406
210.955998 89.606 165.0825
212.484672 89.591 165.0238
214.024424 89.576 164.9656
215.575333 89.560 164.9086
217.137481 89.544 164.8534
218.710948 89.529 164.8002
220.295818 89.513 164.7491
221.892172 89.498 164.7000
223.500094 89.483 164.6526
225.119668 89.469 164.6068
226.750978 89.455 164.5625
228.394109 89.442 164.5199
230.049147 89.430 164.4793
231.716178 89.420 164.4412
233.395289 89.410 164.4059
235.086567 89.402 164.3737
236.790102 89.395 164.3443
238.505980 89.389 164.3176
240.234293 89.384 164.2931
241.975130 89.380 164.2705
243.728581 89.377 164.2498
245.494739 89.374 164.2311
247.273695 89.371 164.2150
249.065542 89.369 164.2018
250.870374 89.366 164.1923
252.688284 89.364 164.1866
254.519367 89.361 164.1850
256.363720 89.358 164.1872
258.221437 89.354 164.1928
260.092616 89.351 164.2011
261.977354 89.347 164.2111
263.875750 89.343 164.2216
265.787903 89.340 164.2317
267.713911 89.337 164.2407
269.653877 89.335 164.2484
271.607900 89.334 164.2551
273.576083 89.333 164.2614
275.558528 89.333 164.2681
277.555338 89.334 164.2758
279.566619 89.335 164.2849
281.592474 89.337 164.2957
283.633009 89.339 164.3080
285.688331 89.341 164.3216
287.758546 89.343 164.3362
289.843763 89.347 164.3518
291.944090 89.350 164.3683
294.059638 89.355 164.3860
296.190515 89.360 164.4047
298.336833 89.365 164.4242
300.498705 89.372 164.4443
302.676243 89.379 164.4644
304.869559 89.386 164.4839
307.078770 89.395 164.5024
309.303989 89.404 164.5193
311.545334 89.413 164.5340
313.802919 89.423 164.5458
316.076865 89.434 164.5543
318.367288 89.445 164.5593
320.674309 89.455 164.5606
322.998047 89.466 164.5584
325.338624 89.477 164.5528
327.696162 89.486 164.5441
330.070783 89.495 164.5326
332.462612 89.503 164.5186
334.871773 89.510 164.5027
337.298392 89.515 164.4853
339.742595 89.518 164.4669
342.204510 89.520 164.4481
344.684265 89.520 164.4297
347.181989 89.518 164.4124
349.697813 89.514 164.3973
352.231868 89.509 164.3854
354.784285 89.502 164.3775
357.355198 89.494 164.3742
359.944741 89.485 164.3756
362.553049 89.475 164.3816
365.180258 89.464 164.3917
367.826505 89.453 164.4055
370.491927 89.441 164.4224
373.176665 89.430 164.4419
375.880856 89.418 164.4635
378.604644 89.406 164.4867
381.348169 89.395 164.5110
384.111575 89.384 164.5361
386.895006 89.372 164.5616
389.698607 89.361 164.5873
392.522524 89.350 164.6130
395.366904 89.338 164.6390
398.231895 89.326 164.6652
401.117648 89.314 164.6922
404.024312 89.301 164.7203
406.952038 89.286 164.7500
409.900981 89.271 164.7817
412.871292 89.255 164.8157
415.863128 89.238 164.8523
418.876643 89.220 164.8917
421.911996 89.201 164.9338
424.969344 89.180 164.9785
428.048847 89.159 165.0256
431.150666 89.137 165.0746
434.274961 89.114 165.1248
437.421897 89.090 165.1757
440.591636 89.066 165.2264
443.784345 89.041 165.2766
447.000189 89.015 165.3256
450.239337 88.989 165.3733
453.501956 88.963 165.4193
456.788219 88.937 165.4636
460.098294 88.910 165.5061
463.432356 88.884 165.5467
466.790578 88.857 165.5854
470.173135 88.832 165.6223
473.580203 88.806 165.6570
477.011961 88.782 165.6895
480.468586 88.758 165.7195
483.950259 88.736 165.7471
487.457163 88.714 165.7723
490.989478 88.693 165.7955
494.547390 88.673 165.8175
498.131084 88.655 165.8391
501.740748 88.637 165.8611
505.376568 88.620 165.8843
509.038735 88.605 165.9090
512.727439 88.592 165.9349
516.442874 88.580 165.9613
520.185232 88.570 165.9875
523.954708 88.562 166.0123
527.751500 88.556 166.0352
531.575805 88.553 166.0558
535.427822 88.551 166.0744
539.307753 88.552 166.0912
543.215800 88.555 166.1074
547.152165 88.559 166.1236
551.117055 88.566 166.1407
555.110677 88.575 166.1593
559.133237 88.586 166.1795
563.184947 88.598 166.2010
567.266018 88.612 166.2232
571.376661 88.628 166.2452
575.517092 88.645 166.2662
579.687526 88.663 166.2858
583.888181 88.681 166.3038
588.119275 88.701 166.3207
592.381030 88.720 166.3369
596.673667 88.740 166.3529
600.997410 88.759 166.3690
605.352485 88.778 166.3849
609.739119 88.797 166.4005
614.157540 88.815 166.4149
618.607979 88.832 166.4275
623.090667 88.849 166.4378
627.605839 88.865 166.4453
632.153730 88.879 166.4496
636.734576 88.893 166.4504
641.348617 88.905 166.4473
645.996094 88.916 166.4397
650.677248 88.926 166.4273
655.392323 88.935 166.4099
660.141566 88.943 166.3875
664.925224 88.949 166.3604
669.743546 88.954 166.3294
674.596784 88.957 166.2956
679.485191 88.959 166.2600
684.409020 88.959 166.2238
689.368530 88.958 166.1876
694.363979 88.956 166.1519
699.395626 88.952 166.1165
704.463736 88.948 166.0812
709.568570 88.942 166.0457
714.710396 88.935 166.0096
719.889483 88.927 165.9726
725.106099 88.919 165.9344
730.360516 88.909 165.8948
735.653010 88.898 165.8533
740.983855 88.886 165.8093
746.353329 88.873 165.7621
751.761713 88.859 165.7112
757.209288 88.844 165.6564
762.696339 88.828 165.5978
768.223151 88.811 165.5356
773.790013 88.793 165.4697
779.397214 88.774 165.3995
785.045047 88.754 165.3246
790.733808 88.734 165.2444
796.463791 88.714 165.1584
802.235296 88.693 165.0666
808.048623 88.671 164.9689
813.904077 88.649 164.8656
819.801961 88.628 164.7571
825.742584 88.606 164.6439
831.726255 88.584 164.5262
837.753287 88.563 164.4044
843.823992 88.542 164.2788
849.938689 88.521 164.1495
856.097695 88.501 164.0167
862.301332 88.481 163.8807
868.549922 88.462 163.7412
874.843793 88.444 163.5976
881.183272 88.426 163.4491
887.568689 88.410 163.2946
894.000378 88.393 163.1334
900.478673 88.377 162.9651
907.003913 88.361 162.7902
913.576437 88.344 162.6095
920.196588 88.328 162.4248
926.864712 88.311 162.2382
933.581156 88.295 162.0519
940.346270 88.278 161.8678
947.160407 88.263 161.6871
954.023921 88.248 161.5105
960.937172 88.234 161.3379
967.900519 88.222 161.1687
974.914325 88.212 161.0016
981.978956 88.204 160.8351
989.094780 88.198 160.6674
996.262169 88.194 160.4973
1003.481495 88.191 160.3239
1010.753136 88.190 160.1473
1018.077470 88.190 159.9680
1025.454879 88.191 159.7870
1032.885748 88.193 159.6053
1040.370463 88.196 159.4235
1047.909417 88.200 159.2416
1055.503000 88.205 159.0595
1063.151610 88.210 158.8767
1070.855645 88.215 158.6933
1078.615506 88.221 158.5096
1086.431599 88.226 158.3267
1094.304330 88.230 158.1457
1102.234110 88.234 157.9681
1110.221353 88.236 157.7952
1118.266475 88.238 157.6279
1126.369895 88.239 157.4662
1134.532035 88.238 157.3098
1142.753322 88.237 157.1578
1151.034184 88.234 157.0093
1159.375052 88.230 156.8638
1167.776361 88.224 156.7219
1176.238550 88.216 156.5851
1184.762060 88.206 156.4557
1193.347334 88.195 156.3366
1201.994821 88.181 156.2306
1210.704971 88.167 156.1393
1219.478238 88.152 156.0635
1228.315080 88.137 156.0022
1237.215957 88.122 155.9532
1246.181334 88.107 155.9141
1255.211678 88.093 155.8822
1264.307459 88.079 155.8559
1273.469152 88.065 155.8350
1282.697235 88.051 155.8205
1291.992188 88.036 155.8143
1301.354495 88.020 155.8182
1310.784647 88.005 155.8336
1320.283132 87.989 155.8610
1329.850448 87.973 155.9004
1339.487093 87.957 155.9513
1349.193569 87.942 156.0133
1358.970381 87.927 156.0862
1368.818041 87.912 156.1699
1378.737061 87.898 156.2640
1388.727958 87.885 156.3681
1398.791253 87.873 156.4820
1408.927471 87.862 156.6060
1419.137140 87.852 156.7414
1429.420793 87.842 156.8898
1439.778965 87.834 157.0535
1450.212197 87.828 157.2341
1460.721033 87.823 157.4331
1471.306019 87.820 157.6511
1481.967709 87.820 157.8880
1492.706658 87.822 158.1425
1503.523426 87.826 158.4128
1514.418576 87.832 158.6969
1525.392678 87.839 158.9942
1536.446302 87.847 159.3055
1547.580025 87.855 159.6332
1558.794428 87.863 159.9805
1570.090095 87.871 160.3497
1581.467615 87.879 160.7417
1592.927581 87.888 161.1553
1604.470591 87.897 161.5880
1616.097246 87.907 162.0364
1627.808153 87.918 162.4970
1639.603922 87.930 162.9659
1651.485168 87.943 163.4388
1663.452510 87.958 163.9119
1675.506573 87.972 164.3818
1687.647984 87.988 164.8464
1699.877377 88.003 165.3048
1712.195390 88.019 165.7575
1724.602663 88.035 166.2057
1737.099845 88.052 166.6503
1749.687587 88.069 167.0918
1762.366544 88.088 167.5298
1775.137379 88.108 167.9629
1788.000756 88.130 168.3881
1800.957346 88.154 168.8018
1814.007826 88.180 169.2000
1827.152874 88.208 169.5787
1840.393177 88.237 169.9349
1853.729425 88.266 170.2667
1867.162312 88.295 170.5728
1880.692540 88.323 170.8533
1894.320813 88.349 171.1096
1908.047843 88.373 171.3442
1921.874344 88.394 171.5604
1935.801038 88.412 171.7619
1949.828650 88.427 171.9518
1963.957912 88.440 172.1313
1978.189561 88.451 172.2994
1992.524338 88.461 172.4533
2006.962991 88.470 172.5891
2021.506272 88.478 172.7029
2036.154940 88.485 172.7915
2050.909758 88.490 172.8524
2065.771495 88.493 172.8843
2080.740927 88.495 172.8867
2095.818833 88.494 172.8603
2111.006001 88.490 172.8071
2126.303220 88.483 172.7295
2141.711290 88.473 172.6307
2157.231013 88.460 172.5139
2172.863198 88.443 172.3821
2188.608660 88.424 172.2387
2204.468221 88.401 172.0867
2220.442706 88.376 171.9290
2236.532950 88.349 171.7678
2252.739789 88.319 171.6047
2269.064070 88.288 171.4410
2285.506644 88.256 171.2780
2302.068367 88.222 171.1162
2318.750104 88.188 170.9561
2335.552723 88.154 170.7973
2352.477101 88.119 170.6392
2369.524119 88.085 170.4815
2386.694668 88.051 170.3241
2403.989641 88.018 170.1670
2421.409941 87.985 170.0102
2438.956476 87.954 169.8535
2456.630160 87.923 169.6970
2474.431915 87.894 169.5412
2492.362668 87.867 169.3867
2510.423356 87.841 169.2336
2528.614918 87.818 169.0813
2546.938304 87.797 168.9282
2565.394469 87.778 168.7720
2583.984375 87.761 168.6100
2602.708991 87.747 168.4395
2621.569293 87.734 168.2585
2640.566265 87.721 168.0666
2659.700897 87.708 167.8647
2678.974186 87.694 167.6560
2698.387137 87.677 167.4448
2717.940763 87.657 167.2370
2737.636082 87.634 167.0397
2757.474121 87.608 166.8606
2777.455915 87.577 166.7074
2797.582506 87.543 166.5879
2817.854942 87.506 166.5093
2838.274281 87.466 166.4782
2858.841586 87.423 166.5002
2879.557931 87.380 166.5801
2900.424394 87.336 166.7219
2921.442065 87.291 166.9285
2942.612039 87.248 167.2024
2963.935418 87.207 167.5451
2985.413316 87.168 167.9572
3007.046852 87.133 168.4379
3028.837153 87.103 168.9847
3050.785356 87.079 169.5934
3072.892604 87.060 170.2570
3095.160050 87.050 170.9664
3117.588856 87.047 171.7100
3140.180190 87.053 172.4736
3162.935230 87.068 173.2412
3185.855163 87.090 173.9951
3208.941182 87.120 174.7171
3232.194493 87.156 175.3904
3255.616307 87.195 176.0010
3279.207844 87.235 176.5400
3302.970336 87.274 177.0042
3326.905021 87.309 177.3966
3351.013146 87.338 177.7265
3375.295969 87.359 178.0071
3399.754755 87.373 178.2547
3424.390779 87.379 178.4856
3449.205326 87.380 178.7144
3474.199690 87.376 178.9510
3499.375173 87.372 179.1996
3524.733088 87.370 179.4572
3550.274757 87.373 179.7133
3576.001511 87.385 179.9514
3601.914692 87.406 -179.8499
3628.015651 87.437 -179.7137
3654.305748 87.478 -179.6617
3680.786354 87.526 -179.7124
3707.458849 87.578 -179.8780
3734.324624 87.633 179.8360
3761.385080 87.685 179.4313
3788.641627 87.731 178.9160
3816.095686 87.768 178.3039
3843.748688 87.795 177.6125
3871.602076 87.808 176.8618
3899.657300 87.808 176.0724
3927.915825 87.793 175.2651
3956.379122 87.763 174.4587
3985.048676 87.720 173.6706
4013.925981 87.665 172.9157
4043.012544 87.597 172.2067
4072.309879 87.519 171.5543
4101.819515 87.431 170.9670
4131.542990 87.334 170.4519
4161.481854 87.231 170.0147
4191.637667 87.120 169.6600
4222.012001 87.004 169.3920
4252.606441 86.883 169.2141
4283.422580 86.758 169.1295
4314.462026 86.629 169.1414
4345.726396 86.497 169.2521
4377.217321 86.364 169.4633
4408.936442 86.230 169.7754
4440.885413 86.097 170.1866
4473.065899 85.966 170.6935
4505.479579 85.839 171.2901
4538.128141 85.717 171.9683
4571.013288 85.602 172.7186
4604.136735 85.493 173.5303
4637.500207 85.393 174.3923
4671.105446 85.302 175.2936
4704.954201 85.221 176.2235
4739.048239 85.150 177.1721
4773.389336 85.089 178.1300
4807.979283 85.039 179.0887
4842.819883 85.001 -179.9599
4877.912952 84.973 -179.0232
4913.260320 84.957 -178.1081
4948.863830 84.953 -177.2212
4984.725337 84.960 -176.3683
5020.846712 84.978 -175.5544
5057.229836 85.007 -174.7839
5093.876609 85.046 -174.0596
5130.788938 85.095 -173.3836
5167.968750 85.152 -172.7567
5205.417982 85.217 -172.1788
5243.138586 85.290 -171.6488
5281.132530 85.369 -171.1648
5319.401793 85.454 -170.7245
5357.948371 85.545 -170.3250
5396.774274 85.641 -169.9630
5435.881525 85.740 -169.6355
5475.272163 85.844 -169.3392
5514.948243 85.952 -169.0712
5554.911831 86.064 -168.8291
5595.165012 86.180 -168.6110
5635.709884 86.299 -168.4159
5676.548561 86.421 -168.2436
5717.683172 86.547 -168.0950
5759.115861 86.677 -167.9713
5800.848789 86.810 -167.8749
5842.884130 86.945 -167.8085
5885.224077 87.083 -167.7751
5927.870837 87.223 -167.7783
5970.826633 87.364 -167.8214
6014.093704 87.506 -167.9076
6057.674306 87.648 -168.0402
6101.570711 87.789 -168.2215
6145.785208 87.928 -168.4536
6190.320101 88.066 -168.7381
6235.177712 88.201 -169.0755
6280.360380 88.333 -169.4661
6325.870460 88.461 -169.9098
6371.710325 88.586 -170.4059
6417.882365 88.708 -170.9543
6464.388986 88.828 -171.5553
6511.232613 88.946 -172.2108
6558.415689 89.064 -172.9242
6605.940673 89.183 -173.7021
6653.810042 89.305 -174.5538
6702.026292 89.430 -175.4925
6750.591937 89.559 -176.5346
6799.509509 89.693 -177.6999
6848.781558 89.832 -179.0101
6898.410653 89.972 179.5123
6948.399380 90.111 177.8458
6998.750346 90.246 175.9722
7049.466176 90.370 173.8784
7100.549514 90.478 171.5581
7152.003023 90.562 169.0133
7203.829385 90.618 166.2550
7256.031302 90.637 163.3029
7308.611496 90.615 160.1848
7361.572708 90.547 156.9351
7414.917698 90.429 153.5928
7468.649249 90.260 150.1991
7522.770160 90.039 146.7955
7577.283253 89.767 143.4207
7632.191371 89.446 140.1081
7687.497376 89.081 136.8835
7743.204151 88.676 133.7617
7799.314600 88.238 130.7443
7855.831649 87.776 127.8178
7912.758244 87.296 124.9528
7970.097352 86.808 122.1057
8027.851962 86.317 119.2213
8086.025087 85.828 116.2382
8144.619758 85.344 113.0944
8203.639030 84.864 109.7313
8263.085980 84.385 106.0974
8322.963708 83.903 102.1476
8383.275334 83.412 97.8405
8444.024002 82.907 93.1321
8505.212881 82.383 87.9673
8566.845160 81.841 82.2696
8628.924051 81.283 75.9287
8691.452792 80.716 68.7908
8754.434642 80.152 60.6530
8817.872884 79.610 51.2793
8881.770826 79.111 40.4587
8946.131799 78.684 28.1357
9010.959157 78.355 14.5917
9076.256282 78.148 0.5283
9142.026576 78.075 -13.1379
9208.273470 78.134 -25.6754
9275.000415 78.311 -36.7751
9342.210891 78.581 -46.4868
9409.908403 78.914 -55.0375
9478.096478 79.281 -62.6923
9546.778672 79.656 -69.6875
9615.958566 80.018 -76.2097
9685.639765 80.351 -82.3958
9755.825904 80.641 -88.3400
9826.520640 80.881 -94.1022
9897.727659 81.066 -99.7167
9969.450674 81.192 -105.1997
10041.693423 81.260 -110.5571
10114.459673 81.271 -115.7894
10187.753217 81.229 -120.8964
10261.577877 81.135 -125.8781
10335.937500 80.993 -130.7341
10410.835964 80.803 -135.4614
10486.277173 80.566 -140.0498
10562.265060 80.279 -144.4771
10638.803587 79.939 -148.7037
10715.896743 79.542 -152.6672
10793.548548 79.086 -156.2780
10871.763050 78.566 -159.4166
10950.544327 77.985 -161.9344
11029.896485 77.344 -163.6612
11109.823662 76.652 -164.4231
11190.330024 75.921 -164.0796
11271.419768 75.168 -162.5826
11353.097122 74.413 -160.0458
11435.366344 73.680 -156.7831
11518.231722 72.990 -153.2583
11601.697577 72.364 -149.9474
11685.768261 71.811 -147.1968
11770.448155 71.337 -145.1679
11855.741674 70.939 -143.8701
11941.653265 70.609 -143.2295
12028.187408 70.338 -143.1473
12115.348612 70.117 -143.5343
12203.141422 69.938 -144.3259
12291.570415 69.793 -145.4857
12380.640201 69.676 -147.0019
12470.355424 69.580 -148.8806
12560.720760 69.496 -151.1366
12651.740920 69.413 -153.7855
12743.420650 69.322 -156.8369
12835.764729 69.212 -160.2922
12928.777972 69.074 -164.1451
13022.465227 68.903 -168.3874
13116.831378 68.696 -173.0150
13211.881345 68.455 -178.0347
13307.620084 68.183 176.5289
13404.052584 67.890 170.6288
13501.183875 67.586 164.1879
13599.019019 67.284 157.0927
13697.563116 67.001 149.1841
13796.821305 66.752 140.2513
13896.798760 66.550 130.0303
13997.500692 66.404 118.2264
14098.932352 66.316 104.5867
14201.099028 66.281 89.0580
14304.006046 66.285 71.9980
14407.658770 66.314 54.2504
14512.062604 66.352 36.8663
14617.222992 66.385 20.6376
14723.145416 66.403 5.8786
14829.835397 66.399 -7.4629
14937.298497 66.367 -19.6042
15045.540320 66.306 -30.7911
15154.566507 66.210 -41.2407
15264.382743 66.076 -51.1237
15374.994752 65.897 -60.5647
15486.408302 65.667 -69.6474
15598.629201 65.380 -78.4209
15711.663298 65.029 -86.9058
15825.516487 64.609 -95.1004
15940.194703 64.120 -102.9868
16055.703925 63.560 -110.5360
16172.050174 62.934 -117.7090
16289.239516 62.246 -124.4543
16407.278061 61.504 -130.6990
16526.171961 60.721 -136.3318
16645.927415 59.912 -141.1782
16766.550667 59.098 -144.9636
16888.048005 58.305 -147.2689
17010.425762 57.567 -147.5137
17133.690320 56.926 -145.0945
17257.848103 56.421 -139.9265
17382.905584 56.090 -133.2881
17508.869284 55.954 -127.6337
17635.745768 56.015 -124.8318
17763.541652 56.257 -125.2302
17892.263597 56.650 -128.2992
18021.918315 57.156 -133.3506
18152.512564 57.740 -139.7852
18284.053153 58.371 -147.0815
18416.546939 59.024 -154.7092
18550.000830 59.677 -162.0466
18684.421783 60.315 -168.3738
18819.816805 60.924 -173.0571
18956.192956 61.493 -175.9727
19093.557344 62.011 -177.8073
19231.917131 62.471 -179.6312
19371.279531 62.864 177.9413
19511.651807 63.183 175.0182
19653.041280 63.425 172.1133
19795.455318 63.587 169.8003
19938.901348 63.667 168.5259
