* Measurement data measured by REW V5.31.3
* Source: EXCL: Headset (USB-C to 3.5mm Headphone Jack Adapter), MICROPHONE (Master Volume), 0, volume: 0.750
* Format: 256k Log Swept Sine, 1 sweep at -12.0 dBFS with no timing reference
* Dated: Apr 7, 2025 4:36:16 PM
* REW Settings:
*  C-weighting compensation: Off
*  Target level: 75.0 dB
* Note: ; 
* Measurement: Satyr 3 (Centered) L8
* Smoothing: 1/6 octave
* Frequency Step: 96 ppo
* Start Frequency: 20.0 Hz
*
* Freq(Hz) SPL(dB) Phase(degrees)
20.187378 78.984 -90.7171
20.333664 79.028 -90.8964
20.481010 79.087 -91.1301
20.629424 79.160 -91.4037
20.778913 79.244 -91.7016
20.929486 79.338 -92.0093
21.081150 79.441 -92.3140
21.233912 79.549 -92.6065
21.387782 79.663 -92.8807
21.542767 79.780 -93.1346
21.698874 79.899 -93.3695
21.856113 80.018 -93.5893
22.014492 80.135 -93.8000
22.174018 80.249 -94.0085
22.334700 80.357 -94.2216
22.496546 80.458 -94.4453
22.659566 80.551 -94.6841
22.823766 80.635 -94.9409
22.989157 80.709 -95.2169
23.155745 80.773 -95.5120
23.323542 80.828 -95.8255
23.492554 80.876 -96.1564
23.662790 80.918 -96.5045
23.834261 80.957 -96.8705
24.006973 80.993 -97.2564
24.180938 81.029 -97.6650
24.356163 81.067 -98.0997
24.532658 81.106 -98.5631
24.710431 81.148 -99.0568
24.889493 81.190 -99.5794
25.069853 81.233 -100.1270
25.251519 81.275 -100.6925
25.434502 81.314 -101.2658
25.618811 81.349 -101.8354
25.804456 81.380 -102.3892
25.991445 81.406 -102.9159
26.179790 81.429 -103.4070
26.369500 81.448 -103.8579
26.560584 81.466 -104.2686
26.753053 81.485 -104.6442
26.946917 81.507 -104.9941
27.142185 81.532 -105.3314
27.338869 81.562 -105.6701
27.536977 81.598 -106.0243
27.736522 81.639 -106.4055
27.937512 81.685 -106.8212
28.139959 81.736 -107.2744
28.343872 81.791 -107.7633
28.549264 81.850 -108.2820
28.756143 81.911 -108.8218
28.964522 81.975 -109.3720
29.174411 82.043 -109.9222
29.385821 82.112 -110.4624
29.598763 82.184 -110.9847
29.813248 82.259 -111.4833
30.029287 82.335 -111.9545
30.246891 82.412 -112.3969
30.466073 82.491 -112.8113
30.686842 82.569 -113.2000
30.909212 82.648 -113.5669
31.133193 82.726 -113.9175
31.358797 82.803 -114.2582
31.586035 82.880 -114.5963
31.814921 82.957 -114.9393
32.045465 83.033 -115.2943
32.277680 83.109 -115.6673
32.511577 83.184 -116.0622
32.747169 83.260 -116.4807
32.984469 83.335 -116.9222
33.223488 83.410 -117.3835
33.464239 83.485 -117.8597
33.706735 83.561 -118.3447
33.950987 83.638 -118.8323
34.197010 83.716 -119.3166
34.444816 83.795 -119.7929
34.694417 83.877 -120.2576
34.945827 83.960 -120.7088
35.199059 84.046 -121.1462
35.454126 84.132 -121.5703
35.711041 84.219 -121.9827
35.969818 84.305 -122.3854
36.230470 84.391 -122.7807
36.493011 84.475 -123.1708
36.757455 84.556 -123.5576
37.023814 84.634 -123.9428
37.292104 84.709 -124.3273
37.562338 84.780 -124.7118
37.834530 84.848 -125.0964
38.108695 84.913 -125.4809
38.384846 84.976 -125.8646
38.662999 85.036 -126.2470
38.943167 85.096 -126.6272
39.225365 85.155 -127.0047
39.509608 85.214 -127.3797
39.795911 85.274 -127.7528
40.084289 85.335 -128.1262
40.374756 85.398 -128.5026
40.667328 85.462 -128.8857
40.962020 85.529 -129.2791
41.258848 85.597 -129.6853
41.557827 85.668 -130.1056
41.858972 85.739 -130.5386
42.162299 85.811 -130.9804
42.467824 85.885 -131.4254
42.775564 85.958 -131.8667
43.085533 86.032 -132.2976
43.397749 86.104 -132.7128
43.712227 86.176 -133.1094
44.028983 86.244 -133.4873
44.348036 86.310 -133.8491
44.669400 86.372 -134.2000
44.993093 86.429 -134.5467
45.319131 86.481 -134.8964
45.647532 86.529 -135.2558
45.978313 86.571 -135.6299
46.311491 86.609 -136.0218
46.647083 86.643 -136.4318
46.985107 86.674 -136.8582
47.325581 86.701 -137.2971
47.668521 86.724 -137.7441
48.013947 86.745 -138.1948
48.361876 86.761 -138.6460
48.712326 86.774 -139.0958
49.065315 86.784 -139.5444
49.420863 86.791 -139.9936
49.778987 86.795 -140.4465
50.139706 86.798 -140.9065
50.503039 86.800 -141.3763
50.869005 86.803 -141.8570
51.237623 86.805 -142.3481
51.608912 86.808 -142.8467
51.982891 86.812 -143.3492
52.359580 86.817 -143.8514
52.739000 86.822 -144.3500
53.121168 86.827 -144.8429
53.506106 86.833 -145.3291
53.893833 86.840 -145.8087
54.284370 86.846 -146.2824
54.677737 86.852 -146.7509
55.073955 86.858 -147.2153
55.473043 86.864 -147.6772
55.875024 86.870 -148.1393
56.279917 86.875 -148.6047
56.687745 86.880 -149.0773
57.098527 86.886 -149.5602
57.512287 86.893 -150.0549
57.929045 86.901 -150.5605
58.348822 86.910 -151.0726
58.771642 86.920 -151.5839
59.197525 86.930 -152.0847
59.626495 86.941 -152.5648
60.058573 86.953 -153.0161
60.493782 86.966 -153.4340
60.932145 86.981 -153.8186
61.373685 86.997 -154.1746
61.818424 87.015 -154.5092
62.266386 87.036 -154.8304
62.717593 87.058 -155.1450
63.172071 87.082 -155.4576
63.629842 87.108 -155.7710
64.090930 87.134 -156.0864
64.555359 87.161 -156.4041
65.023154 87.188 -156.7240
65.494339 87.215 -157.0461
65.968938 87.242 -157.3704
66.446976 87.268 -157.6973
66.928478 87.294 -158.0276
67.413469 87.318 -158.3619
67.901975 87.342 -158.7010
68.394021 87.365 -159.0452
68.889632 87.387 -159.3945
69.388835 87.407 -159.7484
69.891655 87.426 -160.1060
70.398118 87.443 -160.4662
70.908252 87.459 -160.8277
71.422083 87.472 -161.1892
71.939636 87.484 -161.5495
72.460941 87.493 -161.9078
72.986023 87.500 -162.2640
73.514909 87.504 -162.6180
74.047629 87.505 -162.9702
74.584208 87.503 -163.3210
75.124676 87.497 -163.6708
75.669061 87.488 -164.0196
76.217390 87.476 -164.3669
76.769692 87.462 -164.7121
77.325997 87.445 -165.0544
77.886333 87.426 -165.3931
78.450730 87.407 -165.7277
79.019216 87.386 -166.0580
79.591822 87.365 -166.3841
80.168577 87.343 -166.7066
80.749512 87.321 -167.0262
81.334656 87.298 -167.3436
81.924040 87.274 -167.6594
82.517696 87.251 -167.9737
83.115653 87.227 -168.2862
83.717943 87.203 -168.5960
84.324598 87.179 -168.9020
84.935649 87.154 -169.2026
85.551128 87.130 -169.4969
86.171066 87.105 -169.7841
86.795497 87.080 -170.0642
87.424453 87.054 -170.3381
88.057967 87.028 -170.6066
88.696071 87.001 -170.8711
89.338800 86.974 -171.1326
89.986185 86.946 -171.3919
90.638262 86.917 -171.6492
91.295065 86.889 -171.9047
91.956626 86.861 -172.1578
92.622982 86.832 -172.4081
93.294166 86.804 -172.6550
93.970214 86.777 -172.8983
94.651161 86.749 -173.1379
95.337042 86.721 -173.3739
96.027894 86.694 -173.6066
96.723752 86.667 -173.8363
97.424652 86.639 -174.0632
98.130631 86.612 -174.2876
98.841726 86.584 -174.5101
99.557974 86.556 -174.7312
100.279412 86.528 -174.9515
101.006078 86.501 -175.1716
101.738010 86.473 -175.3921
102.475245 86.446 -175.6132
103.217823 86.420 -175.8346
103.965782 86.395 -176.0554
104.719161 86.372 -176.2735
105.477999 86.350 -176.4863
106.242336 86.331 -176.6914
107.012212 86.314 -176.8872
107.787666 86.299 -177.0742
108.568740 86.286 -177.2542
109.355474 86.275 -177.4297
110.147909 86.264 -177.6033
110.946086 86.254 -177.7764
111.750047 86.244 -177.9498
112.559834 86.234 -178.1230
113.375489 86.224 -178.2951
114.197055 86.214 -178.4649
115.024574 86.203 -178.6315
115.858089 86.192 -178.7944
116.697645 86.181 -178.9538
117.543284 86.168 -179.1101
118.395051 86.155 -179.2641
119.252990 86.141 -179.4167
120.117147 86.126 -179.5685
120.987565 86.109 -179.7197
121.864291 86.091 -179.8704
122.747370 86.072 179.9804
123.636848 86.052 179.8337
124.532771 86.030 179.6909
125.435187 86.008 179.5535
126.344142 85.985 179.4232
127.259684 85.961 179.3015
128.181860 85.937 179.1898
129.110718 85.912 179.0895
130.046308 85.887 179.0016
130.988677 85.862 178.9268
131.937875 85.837 178.8651
132.893951 85.813 178.8156
133.856956 85.788 178.7769
134.826938 85.763 178.7461
135.803950 85.738 178.7202
136.788041 85.714 178.6956
137.779264 85.688 178.6694
138.777669 85.663 178.6393
139.783309 85.636 178.6038
140.796237 85.609 178.5626
141.816504 85.580 178.5160
142.844165 85.551 178.4651
143.879273 85.519 178.4116
144.921881 85.486 178.3568
145.972045 85.451 178.3022
147.029819 85.415 178.2495
148.095257 85.377 178.1998
149.168417 85.337 178.1548
150.249353 85.296 178.1164
151.338121 85.254 178.0866
152.434780 85.211 178.0677
153.539385 85.168 178.0618
154.651995 85.123 178.0704
155.772667 85.079 178.0952
156.901460 85.034 178.1370
158.038432 84.991 178.1967
159.183644 84.948 178.2741
160.337154 84.907 178.3692
161.499023 84.868 178.4813
162.669312 84.831 178.6098
163.848081 84.798 178.7538
165.035392 84.768 178.9120
166.231306 84.741 179.0828
167.435887 84.718 179.2637
168.649196 84.699 179.4515
169.871298 84.684 179.6426
171.102255 84.673 179.8329
172.342133 84.666 -179.9816
173.590995 84.663 -179.8051
174.848907 84.663 -179.6414
176.115934 84.666 -179.4940
177.392143 84.672 -179.3656
178.677599 84.680 -179.2578
179.972371 84.689 -179.1713
181.276525 84.699 -179.1059
182.590129 84.709 -179.0603
183.913252 84.719 -179.0331
185.245964 84.728 -179.0226
186.588332 84.736 -179.0270
187.940428 84.743 -179.0445
189.302322 84.748 -179.0735
190.674085 84.751 -179.1120
192.055788 84.752 -179.1585
193.447503 84.750 -179.2112
194.849303 84.746 -179.2689
196.261262 84.740 -179.3304
197.683452 84.731 -179.3948
199.115948 84.720 -179.4613
200.558824 84.707 -179.5291
202.012156 84.694 -179.5975
203.476019 84.679 -179.6653
204.950490 84.664 -179.7316
206.435646 84.648 -179.7959
207.931564 84.632 -179.8581
209.438322 84.615 -179.9189
210.955998 84.598 -179.9794
212.484672 84.582 179.9596
214.024424 84.566 179.8975
215.575333 84.550 179.8347
217.137481 84.535 179.7725
218.710948 84.521 179.7122
220.295818 84.508 179.6555
221.892172 84.496 179.6034
223.500094 84.485 179.5566
225.119668 84.476 179.5154
226.750978 84.468 179.4798
228.394109 84.461 179.4494
230.049147 84.456 179.4237
231.716178 84.451 179.4020
233.395289 84.447 179.3835
235.086567 84.444 179.3674
236.790102 84.442 179.3531
238.505980 84.440 179.3398
240.234293 84.438 179.3269
241.975130 84.438 179.3143
243.728581 84.437 179.3023
245.494739 84.438 179.2921
247.273695 84.439 179.2847
249.065542 84.440 179.2812
250.870374 84.443 179.2825
252.688284 84.446 179.2889
254.519367 84.449 179.3004
256.363720 84.454 179.3163
258.221437 84.458 179.3355
260.092616 84.463 179.3563
261.977354 84.468 179.3767
263.875750 84.472 179.3949
265.787903 84.476 179.4094
267.713911 84.479 179.4197
269.653877 84.482 179.4257
271.607900 84.484 179.4279
273.576083 84.486 179.4270
275.558528 84.487 179.4239
277.555338 84.488 179.4194
279.566619 84.489 179.4147
281.592474 84.490 179.4110
283.633009 84.491 179.4097
285.688331 84.493 179.4124
287.758546 84.495 179.4203
289.843763 84.497 179.4352
291.944090 84.500 179.4577
294.059638 84.504 179.4883
296.190515 84.508 179.5262
298.336833 84.514 179.5702
300.498705 84.520 179.6184
302.676243 84.528 179.6690
304.869559 84.537 179.7205
307.078770 84.546 179.7716
309.303989 84.556 179.8217
311.545334 84.567 179.8707
313.802919 84.579 179.9188
316.076865 84.591 179.9668
318.367288 84.603 -179.9846
320.674309 84.616 -179.9345
322.998047 84.628 -179.8824
325.338624 84.640 -179.8281
327.696162 84.652 -179.7719
330.070783 84.663 -179.7141
332.462612 84.674 -179.6557
334.871773 84.683 -179.5975
337.298392 84.692 -179.5406
339.742595 84.698 -179.4857
342.204510 84.704 -179.4331
344.684265 84.708 -179.3824
347.181989 84.710 -179.3330
349.697813 84.712 -179.2839
352.231868 84.712 -179.2340
354.784285 84.711 -179.1826
357.355198 84.710 -179.1290
359.944741 84.707 -179.0730
362.553049 84.704 -179.0147
365.180258 84.701 -178.9546
367.826505 84.697 -178.8932
370.491927 84.693 -178.8316
373.176665 84.690 -178.7706
375.880856 84.687 -178.7112
378.604644 84.685 -178.6540
381.348169 84.682 -178.5996
384.111575 84.680 -178.5479
386.895006 84.677 -178.4989
389.698607 84.674 -178.4521
392.522524 84.671 -178.4067
395.366904 84.667 -178.3621
398.231895 84.661 -178.3176
401.117648 84.655 -178.2724
404.024312 84.648 -178.2259
406.952038 84.639 -178.1771
409.900981 84.628 -178.1249
412.871292 84.616 -178.0679
415.863128 84.602 -178.0048
418.876643 84.588 -177.9345
421.911996 84.571 -177.8566
424.969344 84.554 -177.7713
428.048847 84.536 -177.6799
431.150666 84.518 -177.5839
434.274961 84.498 -177.4855
437.421897 84.479 -177.3867
440.591636 84.459 -177.2890
443.784345 84.438 -177.1937
447.000189 84.417 -177.1014
450.239337 84.395 -177.0123
453.501956 84.373 -176.9264
456.788219 84.351 -176.8435
460.098294 84.328 -176.7634
463.432356 84.305 -176.6856
466.790578 84.283 -176.6095
470.173135 84.261 -176.5346
473.580203 84.240 -176.4600
477.011961 84.219 -176.3849
480.468586 84.199 -176.3088
483.950259 84.181 -176.2315
487.457163 84.163 -176.1529
490.989478 84.147 -176.0733
494.547390 84.133 -175.9930
498.131084 84.120 -175.9124
501.740748 84.108 -175.8313
505.376568 84.099 -175.7497
509.038735 84.091 -175.6670
512.727439 84.085 -175.5830
516.442874 84.081 -175.4975
520.185232 84.080 -175.4108
523.954708 84.080 -175.3235
527.751500 84.083 -175.2360
531.575805 84.088 -175.1492
535.427822 84.096 -175.0634
539.307753 84.105 -174.9787
543.215800 84.118 -174.8951
547.152165 84.132 -174.8120
551.117055 84.148 -174.7292
555.110677 84.167 -174.6466
559.133237 84.188 -174.5642
563.184947 84.212 -174.4823
567.266018 84.237 -174.4011
571.376661 84.263 -174.3211
575.517092 84.292 -174.2428
579.687526 84.321 -174.1666
583.888181 84.352 -174.0932
588.119275 84.383 -174.0231
592.381030 84.415 -173.9565
596.673667 84.447 -173.8937
600.997410 84.479 -173.8350
605.352485 84.510 -173.7806
609.739119 84.541 -173.7309
614.157540 84.572 -173.6859
618.607979 84.602 -173.6460
623.090667 84.630 -173.6113
627.605839 84.658 -173.5815
632.153730 84.684 -173.5566
636.734576 84.709 -173.5360
641.348617 84.733 -173.5191
645.996094 84.755 -173.5054
650.677248 84.776 -173.4941
655.392323 84.795 -173.4852
660.141566 84.813 -173.4787
664.925224 84.830 -173.4751
669.743546 84.847 -173.4749
674.596784 84.861 -173.4784
679.485191 84.875 -173.4859
684.409020 84.888 -173.4976
689.368530 84.899 -173.5132
694.363979 84.909 -173.5324
699.395626 84.917 -173.5546
704.463736 84.924 -173.5787
709.568570 84.929 -173.6038
714.710396 84.933 -173.6289
719.889483 84.936 -173.6533
725.106099 84.938 -173.6773
730.360516 84.940 -173.7016
735.653010 84.940 -173.7280
740.983855 84.940 -173.7580
746.353329 84.939 -173.7935
751.761713 84.938 -173.8356
757.209288 84.935 -173.8851
762.696339 84.932 -173.9427
768.223151 84.927 -174.0088
773.790013 84.922 -174.0836
779.397214 84.915 -174.1676
785.045047 84.907 -174.2605
790.733808 84.898 -174.3622
796.463791 84.888 -174.4718
802.235296 84.877 -174.5886
808.048623 84.866 -174.7113
813.904077 84.853 -174.8389
819.801961 84.840 -174.9705
825.742584 84.826 -175.1053
831.726255 84.813 -175.2432
837.753287 84.799 -175.3839
843.823992 84.786 -175.5274
849.938689 84.772 -175.6738
856.097695 84.759 -175.8233
862.301332 84.746 -175.9761
868.549922 84.734 -176.1321
874.843793 84.721 -176.2911
881.183272 84.708 -176.4525
887.568689 84.695 -176.6156
894.000378 84.683 -176.7797
900.478673 84.670 -176.9444
907.003913 84.658 -177.1098
913.576437 84.646 -177.2765
920.196588 84.636 -177.4450
926.864712 84.626 -177.6154
933.581156 84.616 -177.7874
940.346270 84.608 -177.9604
947.160407 84.601 -178.1333
954.023921 84.595 -178.3052
960.937172 84.591 -178.4758
967.900519 84.588 -178.6453
974.914325 84.587 -178.8144
981.978956 84.589 -178.9846
989.094780 84.592 -179.1571
996.262169 84.598 -179.3332
1003.481495 84.605 -179.5138
1010.753136 84.615 -179.6998
1018.077470 84.626 -179.8919
1025.454879 84.639 179.9092
1032.885748 84.653 179.7026
1040.370463 84.668 179.4875
1047.909417 84.684 179.2631
1055.503000 84.700 179.0297
1063.151610 84.716 178.7881
1070.855645 84.730 178.5403
1078.615506 84.743 178.2888
1086.431599 84.754 178.0363
1094.304330 84.763 177.7854
1102.234110 84.771 177.5381
1110.221353 84.776 177.2961
1118.266475 84.779 177.0604
1126.369895 84.781 176.8318
1134.532035 84.780 176.6114
1142.753322 84.777 176.3998
1151.034184 84.772 176.1982
1159.375052 84.765 176.0075
1167.776361 84.757 175.8289
1176.238550 84.747 175.6631
1184.762060 84.735 175.5106
1193.347334 84.722 175.3720
1201.994821 84.709 175.2480
1210.704971 84.694 175.1390
1219.478238 84.679 175.0455
1228.315080 84.665 174.9675
1237.215957 84.650 174.9045
1246.181334 84.637 174.8556
1255.211678 84.624 174.8190
1264.307459 84.613 174.7925
1273.469152 84.603 174.7732
1282.697235 84.595 174.7578
1291.992188 84.588 174.7433
1301.354495 84.582 174.7272
1310.784647 84.576 174.7086
1320.283132 84.570 174.6876
1329.850448 84.563 174.6655
1339.487093 84.556 174.6438
1349.193569 84.548 174.6240
1358.970381 84.539 174.6071
1368.818041 84.530 174.5938
1378.737061 84.520 174.5844
1388.727958 84.510 174.5792
1398.791253 84.500 174.5784
1408.927471 84.489 174.5822
1419.137140 84.478 174.5916
1429.420793 84.466 174.6087
1439.778965 84.453 174.6365
1450.212197 84.440 174.6790
1460.721033 84.426 174.7400
1471.306019 84.412 174.8230
1481.967709 84.398 174.9308
1492.706658 84.385 175.0650
1503.523426 84.372 175.2270
1514.418576 84.359 175.4172
1525.392678 84.348 175.6360
1536.446302 84.337 175.8833
1547.580025 84.327 176.1583
1558.794428 84.318 176.4595
1570.090095 84.310 176.7845
1581.467615 84.302 177.1303
1592.927581 84.295 177.4934
1604.470591 84.289 177.8702
1616.097246 84.282 178.2578
1627.808153 84.275 178.6539
1639.603922 84.268 179.0574
1651.485168 84.259 179.4680
1663.452510 84.250 179.8859
1675.506573 84.239 -179.6886
1687.647984 84.229 -179.2556
1699.877377 84.217 -178.8159
1712.195390 84.206 -178.3700
1724.602663 84.195 -177.9188
1737.099845 84.185 -177.4629
1749.687587 84.174 -177.0028
1762.366544 84.165 -176.5392
1775.137379 84.156 -176.0719
1788.000756 84.148 -175.6004
1800.957346 84.141 -175.1238
1814.007826 84.136 -174.6411
1827.152874 84.131 -174.1517
1840.393177 84.129 -173.6564
1853.729425 84.129 -173.1575
1867.162312 84.132 -172.6593
1880.692540 84.137 -172.1673
1894.320813 84.146 -171.6876
1908.047843 84.157 -171.2263
1921.874344 84.170 -170.7891
1935.801038 84.184 -170.3812
1949.828650 84.198 -170.0063
1963.957912 84.212 -169.6657
1978.189561 84.225 -169.3585
1992.524338 84.235 -169.0819
2006.962991 84.244 -168.8325
2021.506272 84.250 -168.6078
2036.154940 84.254 -168.4064
2050.909758 84.256 -168.2281
2065.771495 84.257 -168.0730
2080.740927 84.256 -167.9411
2095.818833 84.254 -167.8326
2111.006001 84.250 -167.7478
2126.303220 84.246 -167.6873
2141.711290 84.241 -167.6514
2157.231013 84.234 -167.6400
2172.863198 84.226 -167.6522
2188.608660 84.216 -167.6869
2204.468221 84.205 -167.7425
2220.442706 84.191 -167.8167
2236.532950 84.176 -167.9068
2252.739789 84.159 -168.0099
2269.064070 84.140 -168.1234
2285.506644 84.119 -168.2447
2302.068367 84.098 -168.3722
2318.750104 84.075 -168.5049
2335.552723 84.052 -168.6421
2352.477101 84.028 -168.7840
2369.524119 84.005 -168.9315
2386.694668 83.982 -169.0857
2403.989641 83.960 -169.2481
2421.409941 83.939 -169.4199
2438.956476 83.918 -169.6017
2456.630160 83.899 -169.7939
2474.431915 83.879 -169.9964
2492.362668 83.860 -170.2088
2510.423356 83.842 -170.4312
2528.614918 83.824 -170.6636
2546.938304 83.805 -170.9068
2565.394469 83.787 -171.1612
2583.984375 83.767 -171.4263
2602.708991 83.746 -171.7000
2621.569293 83.722 -171.9781
2640.566265 83.695 -172.2549
2659.700897 83.663 -172.5229
2678.974186 83.628 -172.7738
2698.387137 83.589 -172.9990
2717.940763 83.546 -173.1905
2737.636082 83.501 -173.3418
2757.474121 83.453 -173.4476
2777.455915 83.405 -173.5045
2797.582506 83.355 -173.5101
2817.854942 83.307 -173.4627
2838.274281 83.259 -173.3611
2858.841586 83.212 -173.2041
2879.557931 83.168 -172.9908
2900.424394 83.126 -172.7205
2921.442065 83.087 -172.3927
2942.612039 83.052 -172.0080
2963.935418 83.022 -171.5677
2985.413316 82.997 -171.0749
3007.046852 82.978 -170.5348
3028.837153 82.965 -169.9544
3050.785356 82.959 -169.3428
3072.892604 82.960 -168.7103
3095.160050 82.967 -168.0685
3117.588856 82.981 -167.4297
3140.180190 82.999 -166.8065
3162.935230 83.021 -166.2111
3185.855163 83.045 -165.6536
3208.941182 83.070 -165.1412
3232.194493 83.092 -164.6767
3255.616307 83.109 -164.2574
3279.207844 83.121 -163.8758
3302.970336 83.125 -163.5201
3326.905021 83.121 -163.1754
3351.013146 83.110 -162.8260
3375.295969 83.092 -162.4571
3399.754755 83.070 -162.0569
3424.390779 83.046 -161.6190
3449.205326 83.025 -161.1440
3474.199690 83.009 -160.6405
3499.375173 83.001 -160.1255
3524.733088 83.006 -159.6227
3550.274757 83.023 -159.1603
3576.001511 83.054 -158.7673
3601.914692 83.097 -158.4704
3628.015651 83.150 -158.2905
3654.305748 83.208 -158.2413
3680.786354 83.270 -158.3282
3707.458849 83.330 -158.5483
3734.324624 83.385 -158.8919
3761.385080 83.433 -159.3434
3788.641627 83.469 -159.8837
3816.095686 83.494 -160.4910
3843.748688 83.505 -161.1431
3871.602076 83.503 -161.8183
3899.657300 83.488 -162.4971
3927.915825 83.461 -163.1619
3956.379122 83.424 -163.7983
3985.048676 83.377 -164.3945
4013.925981 83.322 -164.9414
4043.012544 83.260 -165.4321
4072.309879 83.194 -165.8617
4101.819515 83.123 -166.2266
4131.542990 83.049 -166.5242
4161.481854 82.973 -166.7530
4191.637667 82.895 -166.9120
4222.012001 82.815 -167.0007
4252.606441 82.736 -167.0192
4283.422580 82.656 -166.9683
4314.462026 82.577 -166.8494
4345.726396 82.498 -166.6650
4377.217321 82.421 -166.4187
4408.936442 82.347 -166.1156
4440.885413 82.274 -165.7618
4473.065899 82.205 -165.3643
4505.479579 82.138 -164.9305
4538.128141 82.075 -164.4679
4571.013288 82.015 -163.9834
4604.136735 81.957 -163.4832
4637.500207 81.903 -162.9724
4671.105446 81.851 -162.4552
4704.954201 81.801 -161.9344
4739.048239 81.754 -161.4115
4773.389336 81.710 -160.8870
4807.979283 81.668 -160.3603
4842.819883 81.628 -159.8297
4877.912952 81.592 -159.2928
4913.260320 81.559 -158.7467
4948.863830 81.530 -158.1878
4984.725337 81.507 -157.6127
5020.846712 81.489 -157.0179
5057.229836 81.479 -156.4003
5093.876609 81.477 -155.7573
5130.788938 81.486 -155.0873
5167.968750 81.505 -154.3896
5205.417982 81.538 -153.6651
5243.138586 81.585 -152.9162
5281.132530 81.649 -152.1471
5319.401793 81.730 -151.3639
5357.948371 81.830 -150.5751
5396.774274 81.949 -149.7913
5435.881525 82.090 -149.0256
5475.272163 82.250 -148.2932
5514.948243 82.432 -147.6111
5554.911831 82.632 -146.9974
5595.165012 82.850 -146.4705
5635.709884 83.083 -146.0481
5676.548561 83.328 -145.7455
5717.683172 83.582 -145.5755
5759.115861 83.842 -145.5473
5800.848789 84.105 -145.6662
5842.884130 84.365 -145.9338
5885.224077 84.621 -146.3482
5927.870837 84.869 -146.9040
5970.826633 85.105 -147.5926
6014.093704 85.327 -148.4028
6057.674306 85.534 -149.3204
6101.570711 85.722 -150.3290
6145.785208 85.892 -151.4104
6190.320101 86.042 -152.5450
6235.177712 86.173 -153.7124
6280.360380 86.284 -154.8923
6325.870460 86.379 -156.0656
6371.710325 86.458 -157.2154
6417.882365 86.526 -158.3284
6464.388986 86.587 -159.3968
6511.232613 86.643 -160.4189
6558.415689 86.701 -161.4008
6605.940673 86.763 -162.3565
6653.810042 86.834 -163.3074
6702.026292 86.916 -164.2816
6750.591937 87.010 -165.3110
6799.509509 87.116 -166.4296
6848.781558 87.232 -167.6694
6898.410653 87.355 -169.0582
6948.399380 87.480 -170.6175
6998.750346 87.603 -172.3612
7049.466176 87.719 -174.2959
7100.549514 87.824 -176.4215
7152.003023 87.912 -178.7325
7203.829385 87.982 178.7802
7256.031302 88.029 176.1283
7308.611496 88.052 173.3245
7361.572708 88.048 170.3819
7414.917698 88.016 167.3137
7468.649249 87.954 164.1327
7522.770160 87.861 160.8515
7577.283253 87.735 157.4823
7632.191371 87.577 154.0373
7687.497376 87.384 150.5285
7743.204151 87.156 146.9675
7799.314600 86.894 143.3651
7855.831649 86.595 139.7308
7912.758244 86.262 136.0720
7970.097352 85.893 132.3939
8027.851962 85.491 128.6981
8086.025087 85.055 124.9826
8144.619758 84.587 121.2412
8203.639030 84.088 117.4626
8263.085980 83.559 113.6297
8322.963708 83.001 109.7186
8383.275334 82.417 105.6968
8444.024002 81.809 101.5214
8505.212881 81.178 97.1353
8566.845160 80.528 92.4613
8628.924051 79.863 87.3909
8691.452792 79.188 81.7656
8754.434642 78.511 75.3391
8817.872884 77.843 67.7076
8881.770826 77.198 58.1760
8946.131799 76.594 45.5267
9010.959157 76.051 27.8356
9076.256282 75.591 3.5417
9142.026576 75.234 -24.2643
9208.273470 74.994 -48.1479
9275.000415 74.873 -65.3918
9342.210891 74.864 -77.6726
9409.908403 74.949 -86.8965
9478.096478 75.105 -94.2603
9546.778672 75.309 -100.4512
9615.958566 75.538 -105.8699
9685.639765 75.773 -110.7582
9755.825904 75.999 -115.2660
9826.520640 76.204 -119.4862
9897.727659 76.381 -123.4751
9969.450674 76.525 -127.2655
10041.693423 76.637 -130.8754
10114.459673 76.715 -134.3153
10187.753217 76.764 -137.5942
10261.577877 76.787 -140.7225
10335.937500 76.787 -143.7135
10410.835964 76.769 -146.5829
10486.277173 76.734 -149.3473
10562.265060 76.686 -152.0223
10638.803587 76.626 -154.6215
10715.896743 76.556 -157.1582
10793.548548 76.479 -159.6473
10871.763050 76.398 -162.1082
10950.544327 76.314 -164.5664
11029.896485 76.228 -167.0517
11109.823662 76.138 -169.5945
11190.330024 76.039 -172.2192
11271.419768 75.925 -174.9382
11353.097122 75.785 -177.7451
11435.366344 75.611 179.3868
11518.231722 75.395 176.5052
11601.697577 75.131 173.6741
11685.768261 74.817 170.9680
11770.448155 74.454 168.4636
11855.741674 74.050 166.2316
11941.653265 73.615 164.3257
12028.187408 73.166 162.7716
12115.348612 72.724 161.5526
12203.141422 72.314 160.5980
12291.570415 71.959 159.7794
12380.640201 71.682 158.9208
12470.355424 71.491 157.8251
12560.720760 71.386 156.3087
12651.740920 71.351 154.2307
12743.420650 71.364 151.5070
12835.764729 71.398 148.1078
12928.777972 71.428 144.0454
13022.465227 71.432 139.3583
13116.831378 71.395 134.0984
13211.881345 71.304 128.3206
13307.620084 71.155 122.0740
13404.052584 70.944 115.3932
13501.183875 70.674 108.2856
13599.019019 70.350 100.7108
13697.563116 69.980 92.5331
13796.821305 69.573 83.3959
13896.798760 69.144 72.2950
13997.500692 68.708 55.5997
14098.932352 68.281 12.9435
14201.099028 67.881 -69.7515
14304.006046 67.523 -99.5599
14407.658770 67.215 -113.6879
14512.062604 66.962 -123.8787
14617.222992 66.760 -132.5466
14723.145416 66.599 -140.4561
14829.835397 66.469 -147.9160
14937.298497 66.355 -155.0710
15045.540320 66.250 -161.9929
15154.566507 66.144 -168.7195
15264.382743 66.037 -175.2727
15374.994752 65.931 178.3280
15486.408302 65.832 172.0530
15598.629201 65.751 165.8518
15711.663298 65.694 159.6494
15825.516487 65.664 153.3538
15940.194703 65.655 146.8721
16055.703925 65.652 140.1292
16172.050174 65.637 133.0823
16289.239516 65.590 125.7240
16407.278061 65.496 118.0791
16526.171961 65.339 110.1965
16645.927415 65.111 102.1406
16766.550667 64.804 93.9856
16888.048005 64.415 85.8123
17010.425762 63.942 77.7046
17133.690320 63.384 69.7476
17257.848103 62.744 62.0203
17382.905584 62.025 54.5914
17508.869284 61.232 47.5128
17635.745768 60.371 40.8149
17763.541652 59.451 34.5021
17892.263597 58.480 28.5453
18021.918315 57.472 22.8730
18152.512564 56.439 17.3607
18284.053153 55.402 11.8241
18416.546939 54.383 6.0242
18550.000830 53.408 -0.3138
18684.421783 52.505 -7.4675
18819.816805 51.702 -15.6754
18956.192956 51.018 -25.0784
19093.557344 50.463 -35.6278
19231.917131 50.035 -46.9656
19371.279531 49.721 -58.3607
19511.651807 49.502 -68.8286
19653.041280 49.357 -77.4176
19795.455318 49.271 -83.4443
19938.901348 49.230 -86.5331
