* Measurement data measured by REW V5.31.3
* Source: EXCL: Headset (USB-C to 3.5mm Headphone Jack Adapter), MICROPHONE (Master Volume), 0, volume: 0.750
* Format: 256k Log Swept Sine, 1 sweep at -12.0 dBFS with no timing reference
* Dated: Apr 7, 2025 4:38:22 PM
* REW Settings:
*  C-weighting compensation: Off
*  Target level: 75.0 dB
* Note: ; 
* Measurement: Satyr 3 (Forward) L3
* Smoothing: 1/6 octave
* Frequency Step: 96 ppo
* Start Frequency: 20.0 Hz
*
* Freq(Hz) SPL(dB) Phase(degrees)
20.187378 79.698 -93.7681
20.333664 79.741 -93.7865
20.481010 79.799 -93.8152
20.629424 79.870 -93.8589
20.778913 79.954 -93.9226
20.929486 80.048 -94.0111
21.081150 80.152 -94.1290
21.233912 80.264 -94.2792
21.387782 80.381 -94.4636
21.542767 80.503 -94.6825
21.698874 80.627 -94.9345
21.856113 80.752 -95.2170
22.014492 80.876 -95.5260
22.174018 80.999 -95.8572
22.334700 81.118 -96.2057
22.496546 81.233 -96.5664
22.659566 81.343 -96.9349
22.823766 81.447 -97.3071
22.989157 81.543 -97.6797
23.155745 81.632 -98.0502
23.323542 81.713 -98.4170
23.492554 81.785 -98.7793
23.662790 81.848 -99.1371
23.834261 81.904 -99.4908
24.006973 81.951 -99.8417
24.180938 81.991 -100.1912
24.356163 82.025 -100.5412
24.532658 82.053 -100.8937
24.710431 82.077 -101.2510
24.889493 82.099 -101.6150
25.069853 82.118 -101.9878
25.251519 82.138 -102.3712
25.434502 82.158 -102.7668
25.618811 82.181 -103.1758
25.804456 82.207 -103.5992
25.991445 82.236 -104.0374
26.179790 82.269 -104.4907
26.369500 82.305 -104.9587
26.560584 82.345 -105.4405
26.753053 82.389 -105.9347
26.946917 82.434 -106.4392
27.142185 82.481 -106.9512
27.338869 82.529 -107.4675
27.536977 82.576 -107.9840
27.736522 82.624 -108.4964
27.937512 82.670 -109.0002
28.139959 82.716 -109.4913
28.343872 82.761 -109.9659
28.549264 82.806 -110.4215
28.756143 82.851 -110.8569
28.964522 82.897 -111.2723
29.174411 82.945 -111.6696
29.385821 82.994 -112.0522
29.598763 83.046 -112.4247
29.813248 83.099 -112.7924
30.029287 83.153 -113.1610
30.246891 83.209 -113.5356
30.466073 83.265 -113.9208
30.686842 83.321 -114.3201
30.909212 83.377 -114.7356
31.133193 83.433 -115.1683
31.358797 83.488 -115.6178
31.586035 83.543 -116.0827
31.814921 83.599 -116.5609
32.045465 83.655 -117.0496
32.277680 83.714 -117.5455
32.511577 83.775 -118.0454
32.747169 83.839 -118.5456
32.984469 83.907 -119.0426
33.223488 83.978 -119.5328
33.464239 84.052 -120.0129
33.706735 84.129 -120.4800
33.950987 84.209 -120.9315
34.197010 84.291 -121.3658
34.444816 84.374 -121.7825
34.694417 84.457 -122.1821
34.945827 84.541 -122.5665
35.199059 84.625 -122.9384
35.454126 84.709 -123.3013
35.711041 84.793 -123.6589
35.969818 84.876 -124.0141
36.230470 84.959 -124.3695
36.493011 85.041 -124.7260
36.757455 85.122 -125.0835
37.023814 85.203 -125.4407
37.292104 85.283 -125.7956
37.562338 85.361 -126.1455
37.834530 85.439 -126.4878
38.108695 85.515 -126.8204
38.384846 85.590 -127.1418
38.662999 85.663 -127.4516
38.943167 85.734 -127.7506
39.225365 85.803 -128.0410
39.509608 85.870 -128.3262
39.795911 85.936 -128.6104
40.084289 86.000 -128.8988
40.374756 86.063 -129.1960
40.667328 86.126 -129.5066
40.962020 86.189 -129.8336
41.258848 86.251 -130.1792
41.557827 86.314 -130.5438
41.858972 86.377 -130.9270
42.162299 86.441 -131.3277
42.467824 86.506 -131.7439
42.775564 86.571 -132.1732
43.085533 86.635 -132.6126
43.397749 86.697 -133.0585
43.712227 86.757 -133.5066
44.028983 86.814 -133.9523
44.348036 86.868 -134.3911
44.669400 86.917 -134.8195
44.993093 86.962 -135.2360
45.319131 87.004 -135.6411
45.647532 87.042 -136.0377
45.978313 87.078 -136.4301
46.311491 87.113 -136.8231
46.647083 87.146 -137.2211
46.985107 87.178 -137.6269
47.325581 87.209 -138.0420
47.668521 87.240 -138.4661
48.013947 87.270 -138.8980
48.361876 87.299 -139.3362
48.712326 87.327 -139.7787
49.065315 87.353 -140.2234
49.420863 87.377 -140.6685
49.778987 87.398 -141.1123
50.139706 87.416 -141.5538
50.503039 87.431 -141.9929
50.869005 87.442 -142.4304
51.237623 87.450 -142.8678
51.608912 87.456 -143.3067
51.982891 87.460 -143.7488
52.359580 87.463 -144.1956
52.739000 87.465 -144.6490
53.121168 87.468 -145.1112
53.506106 87.471 -145.5843
53.893833 87.475 -146.0702
54.284370 87.480 -146.5699
54.677737 87.487 -147.0837
55.073955 87.493 -147.6119
55.473043 87.499 -148.1555
55.875024 87.505 -148.7167
56.279917 87.509 -149.2987
56.687745 87.511 -149.9050
57.098527 87.512 -150.5372
57.512287 87.512 -151.1935
57.929045 87.511 -151.8666
58.348822 87.510 -152.5421
58.771642 87.511 -153.1986
59.197525 87.514 -153.8107
59.626495 87.519 -154.3536
60.058573 87.529 -154.8100
60.493782 87.543 -155.1745
60.932145 87.561 -155.4554
61.373685 87.582 -155.6721
61.818424 87.607 -155.8494
62.266386 87.633 -156.0115
62.717593 87.660 -156.1780
63.172071 87.687 -156.3619
63.629842 87.714 -156.5701
64.090930 87.742 -156.8039
64.555359 87.770 -157.0613
65.023154 87.798 -157.3382
65.494339 87.826 -157.6304
65.968938 87.853 -157.9343
66.446976 87.881 -158.2472
66.928478 87.908 -158.5672
67.413469 87.935 -158.8929
67.901975 87.961 -159.2230
68.394021 87.985 -159.5571
68.889632 88.009 -159.8949
69.388835 88.031 -160.2365
69.891655 88.051 -160.5824
70.398118 88.068 -160.9328
70.908252 88.084 -161.2880
71.422083 88.096 -161.6475
71.939636 88.107 -162.0104
72.460941 88.114 -162.3754
72.986023 88.120 -162.7412
73.514909 88.123 -163.1062
74.047629 88.123 -163.4690
74.584208 88.121 -163.8282
75.124676 88.116 -164.1823
75.669061 88.108 -164.5302
76.217390 88.098 -164.8709
76.769692 88.085 -165.2040
77.325997 88.070 -165.5296
77.886333 88.053 -165.8480
78.450730 88.034 -166.1596
79.019216 88.014 -166.4651
79.591822 87.993 -166.7655
80.168577 87.970 -167.0616
80.749512 87.948 -167.3542
81.334656 87.924 -167.6437
81.924040 87.901 -167.9305
82.517696 87.878 -168.2149
83.115653 87.854 -168.4971
83.717943 87.831 -168.7771
84.324598 87.808 -169.0550
84.935649 87.784 -169.3311
85.551128 87.761 -169.6058
86.171066 87.738 -169.8795
86.795497 87.714 -170.1530
87.424453 87.690 -170.4268
88.057967 87.666 -170.7011
88.696071 87.642 -170.9758
89.338800 87.617 -171.2502
89.986185 87.592 -171.5235
90.638262 87.566 -171.7947
91.295065 87.541 -172.0630
91.956626 87.514 -172.3276
92.622982 87.488 -172.5878
93.294166 87.461 -172.8431
93.970214 87.434 -173.0933
94.651161 87.406 -173.3381
95.337042 87.378 -173.5776
96.027894 87.350 -173.8123
96.723752 87.322 -174.0429
97.424652 87.294 -174.2706
98.130631 87.266 -174.4967
98.841726 87.238 -174.7226
99.557974 87.210 -174.9495
100.279412 87.182 -175.1781
101.006078 87.155 -175.4083
101.738010 87.129 -175.6395
102.475245 87.103 -175.8707
103.217823 87.078 -176.1008
103.965782 87.054 -176.3285
104.719161 87.032 -176.5519
105.477999 87.010 -176.7691
106.242336 86.990 -176.9777
107.012212 86.971 -177.1763
107.787666 86.952 -177.3643
108.568740 86.935 -177.5423
109.355474 86.918 -177.7113
110.147909 86.901 -177.8727
110.946086 86.884 -178.0279
111.750047 86.868 -178.1780
112.559834 86.851 -178.3243
113.375489 86.835 -178.4681
114.197055 86.819 -178.6105
115.024574 86.804 -178.7524
115.858089 86.789 -178.8941
116.697645 86.775 -179.0352
117.543284 86.760 -179.1750
118.395051 86.745 -179.3119
119.252990 86.730 -179.4444
120.117147 86.713 -179.5708
120.987565 86.695 -179.6895
121.864291 86.676 -179.7992
122.747370 86.656 -179.8991
123.636848 86.635 -179.9886
124.532771 86.614 179.9325
125.435187 86.592 179.8644
126.344142 86.569 179.8071
127.259684 86.547 179.7608
128.181860 86.526 179.7252
129.110718 86.505 179.6999
130.046308 86.484 179.6838
130.988677 86.465 179.6754
131.937875 86.448 179.6721
132.893951 86.431 179.6707
133.856956 86.416 179.6671
134.826938 86.403 179.6570
135.803950 86.390 179.6365
136.788041 86.377 179.6027
137.779264 86.365 179.5541
138.777669 86.352 179.4906
139.783309 86.337 179.4133
140.796237 86.321 179.3240
141.816504 86.302 179.2248
142.844165 86.281 179.1185
143.879273 86.258 179.0077
144.921881 86.232 178.8953
145.972045 86.204 178.7843
147.029819 86.173 178.6773
148.095257 86.141 178.5767
149.168417 86.106 178.4845
150.249353 86.069 178.4023
151.338121 86.030 178.3315
152.434780 85.990 178.2729
153.539385 85.949 178.2275
154.651995 85.907 178.1958
155.772667 85.864 178.1788
156.901460 85.821 178.1773
158.038432 85.779 178.1922
159.183644 85.737 178.2243
160.337154 85.697 178.2740
161.499023 85.659 178.3417
162.669312 85.623 178.4273
163.848081 85.590 178.5303
165.035392 85.560 178.6495
166.231306 85.532 178.7832
167.435887 85.509 178.9291
168.649196 85.489 179.0843
169.871298 85.472 179.2457
171.102255 85.460 179.4100
172.342133 85.450 179.5737
173.590995 85.444 179.7331
174.848907 85.440 179.8843
176.115934 85.439 -179.9766
177.392143 85.438 -179.8540
178.677599 85.439 -179.7516
179.972371 85.440 -179.6725
181.276525 85.441 -179.6180
182.590129 85.441 -179.5872
183.913252 85.441 -179.5776
185.245964 85.440 -179.5854
186.588332 85.437 -179.6070
187.940428 85.434 -179.6394
189.302322 85.430 -179.6798
190.674085 85.425 -179.7263
192.055788 85.419 -179.7776
193.447503 85.411 -179.8323
194.849303 85.403 -179.8895
196.261262 85.394 -179.9479
197.683452 85.385 179.9935
199.115948 85.375 179.9357
200.558824 85.365 179.8792
202.012156 85.354 179.8238
203.476019 85.343 179.7690
204.950490 85.332 179.7139
206.435646 85.320 179.6578
207.931564 85.307 179.6002
209.438322 85.294 179.5417
210.955998 85.280 179.4836
212.484672 85.265 179.4276
214.024424 85.250 179.3751
215.575333 85.234 179.3270
217.137481 85.218 179.2838
218.710948 85.202 179.2455
220.295818 85.187 179.2120
221.892172 85.172 179.1829
223.500094 85.159 179.1577
225.119668 85.146 179.1359
226.750978 85.133 179.1165
228.394109 85.121 179.0990
230.049147 85.110 179.0826
231.716178 85.099 179.0667
233.395289 85.089 179.0507
235.086567 85.080 179.0340
236.790102 85.072 179.0162
238.505980 85.067 178.9969
240.234293 85.063 178.9761
241.975130 85.060 178.9540
243.728581 85.059 178.9313
245.494739 85.060 178.9089
247.273695 85.061 178.8876
249.065542 85.064 178.8682
250.870374 85.066 178.8514
252.688284 85.069 178.8380
254.519367 85.072 178.8286
256.363720 85.075 178.8239
258.221437 85.078 178.8243
260.092616 85.081 178.8301
261.977354 85.083 178.8412
263.875750 85.084 178.8575
265.787903 85.085 178.8781
267.713911 85.086 178.9015
269.653877 85.086 178.9261
271.607900 85.086 178.9503
273.576083 85.085 178.9730
275.558528 85.085 178.9936
277.555338 85.085 179.0124
279.566619 85.085 179.0301
281.592474 85.086 179.0477
283.633009 85.087 179.0656
285.688331 85.089 179.0843
287.758546 85.092 179.1038
289.843763 85.095 179.1244
291.944090 85.100 179.1464
294.059638 85.105 179.1702
296.190515 85.111 179.1960
298.336833 85.118 179.2241
300.498705 85.125 179.2540
302.676243 85.133 179.2853
304.869559 85.141 179.3180
307.078770 85.150 179.3518
309.303989 85.159 179.3865
311.545334 85.169 179.4221
313.802919 85.179 179.4580
316.076865 85.189 179.4940
318.367288 85.199 179.5294
320.674309 85.209 179.5639
322.998047 85.218 179.5977
325.338624 85.228 179.6310
327.696162 85.237 179.6647
330.070783 85.246 179.6996
332.462612 85.254 179.7362
334.871773 85.261 179.7752
337.298392 85.267 179.8166
339.742595 85.272 179.8605
342.204510 85.275 179.9070
344.684265 85.277 179.9558
347.181989 85.278 -179.9930
349.697813 85.277 -179.9397
352.231868 85.274 -179.8846
354.784285 85.271 -179.8282
357.355198 85.266 -179.7710
359.944741 85.261 -179.7134
362.553049 85.255 -179.6559
365.180258 85.248 -179.5992
367.826505 85.242 -179.5436
370.491927 85.235 -179.4895
373.176665 85.229 -179.4370
375.880856 85.222 -179.3863
378.604644 85.216 -179.3376
381.348169 85.211 -179.2908
384.111575 85.205 -179.2460
386.895006 85.200 -179.2027
389.698607 85.195 -179.1600
392.522524 85.190 -179.1170
395.366904 85.185 -179.0725
398.231895 85.179 -179.0253
401.117648 85.172 -178.9745
404.024312 85.165 -178.9194
406.952038 85.156 -178.8594
409.900981 85.146 -178.7941
412.871292 85.135 -178.7229
415.863128 85.122 -178.6458
418.876643 85.108 -178.5627
421.911996 85.093 -178.4740
424.969344 85.076 -178.3805
428.048847 85.059 -178.2833
431.150666 85.040 -178.1837
434.274961 85.020 -178.0825
437.421897 85.000 -177.9806
440.591636 84.979 -177.8787
443.784345 84.957 -177.7776
447.000189 84.935 -177.6779
450.239337 84.912 -177.5798
453.501956 84.889 -177.4837
456.788219 84.866 -177.3894
460.098294 84.843 -177.2965
463.432356 84.820 -177.2046
466.790578 84.798 -177.1133
470.173135 84.776 -177.0220
473.580203 84.754 -176.9306
477.011961 84.734 -176.8387
480.468586 84.715 -176.7467
483.950259 84.697 -176.6549
487.457163 84.680 -176.5635
490.989478 84.664 -176.4727
494.547390 84.650 -176.3824
498.131084 84.637 -176.2926
501.740748 84.626 -176.2030
505.376568 84.617 -176.1135
509.038735 84.608 -176.0239
512.727439 84.602 -175.9343
516.442874 84.598 -175.8448
520.185232 84.596 -175.7558
523.954708 84.596 -175.6676
527.751500 84.598 -175.5807
531.575805 84.604 -175.4955
535.427822 84.611 -175.4124
539.307753 84.622 -175.3318
543.215800 84.635 -175.2537
547.152165 84.650 -175.1781
551.117055 84.668 -175.1049
555.110677 84.687 -175.0340
559.133237 84.709 -174.9650
563.184947 84.733 -174.8978
567.266018 84.758 -174.8322
571.376661 84.786 -174.7680
575.517092 84.814 -174.7054
579.687526 84.843 -174.6443
583.888181 84.874 -174.5853
588.119275 84.904 -174.5286
592.381030 84.936 -174.4748
596.673667 84.967 -174.4245
600.997410 84.998 -174.3785
605.352485 85.028 -174.3376
609.739119 85.058 -174.3022
614.157540 85.088 -174.2724
618.607979 85.116 -174.2479
623.090667 85.143 -174.2280
627.605839 85.168 -174.2118
632.153730 85.192 -174.1982
636.734576 85.215 -174.1862
641.348617 85.236 -174.1749
645.996094 85.256 -174.1640
650.677248 85.274 -174.1534
655.392323 85.292 -174.1435
660.141566 85.309 -174.1353
664.925224 85.325 -174.1302
669.743546 85.341 -174.1298
674.596784 85.357 -174.1356
679.485191 85.371 -174.1487
684.409020 85.385 -174.1698
689.368530 85.398 -174.1986
694.363979 85.409 -174.2344
699.395626 85.419 -174.2758
704.463736 85.427 -174.3211
709.568570 85.433 -174.3684
714.710396 85.438 -174.4161
719.889483 85.440 -174.4631
725.106099 85.442 -174.5094
730.360516 85.442 -174.5560
735.653010 85.441 -174.6044
740.983855 85.439 -174.6563
746.353329 85.437 -174.7134
751.761713 85.433 -174.7767
757.209288 85.428 -174.8470
762.696339 85.422 -174.9249
768.223151 85.415 -175.0110
773.790013 85.407 -175.1059
779.397214 85.397 -175.2098
785.045047 85.386 -175.3225
790.733808 85.374 -175.4434
796.463791 85.361 -175.5717
802.235296 85.347 -175.7062
808.048623 85.332 -175.8459
813.904077 85.317 -175.9899
819.801961 85.301 -176.1379
825.742584 85.285 -176.2898
831.726255 85.268 -176.4458
837.753287 85.252 -176.6063
843.823992 85.236 -176.7713
849.938689 85.220 -176.9409
856.097695 85.203 -177.1151
862.301332 85.187 -177.2933
868.549922 85.171 -177.4752
874.843793 85.154 -177.6602
881.183272 85.138 -177.8479
887.568689 85.121 -178.0379
894.000378 85.105 -178.2301
900.478673 85.089 -178.4249
907.003913 85.073 -178.6225
913.576437 85.057 -178.8227
920.196588 85.042 -179.0255
926.864712 85.027 -179.2303
933.581156 85.013 -179.4361
940.346270 84.999 -179.6423
947.160407 84.985 -179.8484
954.023921 84.972 179.9460
960.937172 84.961 179.7407
967.900519 84.950 179.5357
974.914325 84.940 179.3309
981.978956 84.932 179.1265
989.094780 84.925 178.9229
996.262169 84.919 178.7206
1003.481495 84.916 178.5196
1010.753136 84.913 178.3198
1018.077470 84.913 178.1204
1025.454879 84.914 177.9197
1032.885748 84.917 177.7161
1040.370463 84.921 177.5078
1047.909417 84.925 177.2936
1055.503000 84.930 177.0740
1063.151610 84.934 176.8505
1070.855645 84.937 176.6259
1078.615506 84.939 176.4033
1086.431599 84.939 176.1860
1094.304330 84.938 175.9766
1102.234110 84.936 175.7768
1110.221353 84.932 175.5871
1118.266475 84.928 175.4073
1126.369895 84.923 175.2368
1134.532035 84.916 175.0745
1142.753322 84.909 174.9196
1151.034184 84.901 174.7717
1159.375052 84.892 174.6306
1167.776361 84.883 174.4968
1176.238550 84.872 174.3703
1184.762060 84.861 174.2516
1193.347334 84.849 174.1410
1201.994821 84.836 174.0387
1210.704971 84.823 173.9447
1219.478238 84.810 173.8590
1228.315080 84.796 173.7817
1237.215957 84.783 173.7130
1246.181334 84.770 173.6525
1255.211678 84.756 173.6000
1264.307459 84.744 173.5545
1273.469152 84.731 173.5144
1282.697235 84.719 173.4780
1291.992188 84.707 173.4436
1301.354495 84.695 173.4103
1310.784647 84.683 173.3779
1320.283132 84.669 173.3472
1329.850448 84.655 173.3199
1339.487093 84.640 173.2979
1349.193569 84.623 173.2834
1358.970381 84.606 173.2784
1368.818041 84.588 173.2838
1378.737061 84.569 173.2999
1388.727958 84.551 173.3262
1398.791253 84.534 173.3620
1408.927471 84.516 173.4066
1419.137140 84.500 173.4602
1429.420793 84.484 173.5236
1439.778965 84.468 173.5980
1450.212197 84.453 173.6842
1460.721033 84.439 173.7831
1471.306019 84.425 173.8952
1481.967709 84.412 174.0219
1492.706658 84.399 174.1648
1503.523426 84.386 174.3264
1514.418576 84.373 174.5093
1525.392678 84.360 174.7163
1536.446302 84.346 174.9490
1547.580025 84.333 175.2085
1558.794428 84.319 175.4943
1570.090095 84.306 175.8054
1581.467615 84.293 176.1397
1592.927581 84.279 176.4949
1604.470591 84.266 176.8680
1616.097246 84.252 177.2564
1627.808153 84.238 177.6573
1639.603922 84.223 178.0690
1651.485168 84.207 178.4901
1663.452510 84.190 178.9204
1675.506573 84.172 179.3604
1687.647984 84.153 179.8111
1699.877377 84.133 -179.7255
1712.195390 84.113 -179.2473
1724.602663 84.093 -178.7527
1737.099845 84.074 -178.2414
1749.687587 84.056 -177.7141
1762.366544 84.041 -177.1732
1775.137379 84.029 -176.6223
1788.000756 84.021 -176.0659
1800.957346 84.016 -175.5094
1814.007826 84.015 -174.9587
1827.152874 84.018 -174.4202
1840.393177 84.024 -173.8995
1853.729425 84.032 -173.4008
1867.162312 84.042 -172.9260
1880.692540 84.051 -172.4744
1894.320813 84.061 -172.0435
1908.047843 84.069 -171.6306
1921.874344 84.078 -171.2336
1935.801038 84.086 -170.8520
1949.828650 84.093 -170.4873
1963.957912 84.101 -170.1425
1978.189561 84.109 -169.8221
1992.524338 84.117 -169.5311
2006.962991 84.124 -169.2743
2021.506272 84.131 -169.0548
2036.154940 84.135 -168.8738
2050.909758 84.137 -168.7296
2065.771495 84.136 -168.6187
2080.740927 84.131 -168.5359
2095.818833 84.122 -168.4758
2111.006001 84.110 -168.4334
2126.303220 84.095 -168.4047
2141.711290 84.077 -168.3875
2157.231013 84.057 -168.3809
2172.863198 84.036 -168.3853
2188.608660 84.014 -168.4014
2204.468221 83.991 -168.4296
2220.442706 83.966 -168.4697
2236.532950 83.941 -168.5213
2252.739789 83.914 -168.5844
2269.064070 83.887 -168.6589
2285.506644 83.859 -168.7447
2302.068367 83.829 -168.8407
2318.750104 83.798 -168.9446
2335.552723 83.766 -169.0531
2352.477101 83.732 -169.1629
2369.524119 83.698 -169.2708
2386.694668 83.663 -169.3744
2403.989641 83.629 -169.4728
2421.409941 83.597 -169.5667
2438.956476 83.566 -169.6590
2456.630160 83.538 -169.7535
2474.431915 83.512 -169.8547
2492.362668 83.489 -169.9664
2510.423356 83.469 -170.0915
2528.614918 83.450 -170.2315
2546.938304 83.433 -170.3873
2565.394469 83.416 -170.5585
2583.984375 83.399 -170.7438
2602.708991 83.382 -170.9412
2621.569293 83.363 -171.1476
2640.566265 83.342 -171.3586
2659.700897 83.318 -171.5688
2678.974186 83.291 -171.7712
2698.387137 83.261 -171.9586
2717.940763 83.227 -172.1234
2737.636082 83.191 -172.2589
2757.474121 83.151 -172.3590
2777.455915 83.110 -172.4182
2797.582506 83.067 -172.4321
2817.854942 83.023 -172.3968
2838.274281 82.979 -172.3090
2858.841586 82.936 -172.1662
2879.557931 82.894 -171.9668
2900.424394 82.855 -171.7103
2921.442065 82.818 -171.3974
2942.612039 82.785 -171.0300
2963.935418 82.757 -170.6111
2985.413316 82.733 -170.1445
3007.046852 82.714 -169.6348
3028.837153 82.701 -169.0876
3050.785356 82.693 -168.5094
3072.892604 82.690 -167.9077
3095.160050 82.693 -167.2914
3117.588856 82.701 -166.6705
3140.180190 82.713 -166.0562
3162.935230 82.729 -165.4600
3185.855163 82.747 -164.8924
3208.941182 82.766 -164.3613
3232.194493 82.783 -163.8703
3255.616307 82.796 -163.4182
3279.207844 82.805 -162.9988
3302.970336 82.806 -162.6015
3326.905021 82.801 -162.2128
3351.013146 82.789 -161.8184
3375.295969 82.772 -161.4055
3399.754755 82.752 -160.9648
3424.390779 82.731 -160.4924
3449.205326 82.714 -159.9915
3474.199690 82.703 -159.4731
3499.375173 82.700 -158.9552
3524.733088 82.709 -158.4618
3550.274757 82.730 -158.0201
3576.001511 82.764 -157.6571
3601.914692 82.807 -157.3964
3628.015651 82.858 -157.2556
3654.305748 82.914 -157.2449
3680.786354 82.970 -157.3658
3707.458849 83.024 -157.6123
3734.324624 83.071 -157.9716
3761.385080 83.109 -158.4259
3788.641627 83.136 -158.9544
3816.095686 83.151 -159.5352
3843.748688 83.154 -160.1467
3871.602076 83.145 -160.7691
3899.657300 83.126 -161.3854
3927.915825 83.098 -161.9821
3956.379122 83.061 -162.5488
3985.048676 83.018 -163.0788
4013.925981 82.971 -163.5679
4043.012544 82.919 -164.0143
4072.309879 82.865 -164.4175
4101.819515 82.808 -164.7781
4131.542990 82.749 -165.0965
4161.481854 82.688 -165.3732
4191.637667 82.625 -165.6085
4222.012001 82.559 -165.8019
4252.606441 82.490 -165.9523
4283.422580 82.417 -166.0582
4314.462026 82.341 -166.1173
4345.726396 82.261 -166.1270
4377.217321 82.176 -166.0851
4408.936442 82.088 -165.9895
4440.885413 81.996 -165.8384
4473.065899 81.901 -165.6304
4505.479579 81.802 -165.3643
4538.128141 81.701 -165.0385
4571.013288 81.597 -164.6513
4604.136735 81.491 -164.2005
4637.500207 81.385 -163.6838
4671.105446 81.280 -163.0984
4704.954201 81.176 -162.4419
4739.048239 81.075 -161.7127
4773.389336 80.980 -160.9101
4807.979283 80.892 -160.0347
4842.819883 80.814 -159.0889
4877.912952 80.749 -158.0774
4913.260320 80.698 -157.0071
4948.863830 80.665 -155.8875
4984.725337 80.652 -154.7307
5020.846712 80.660 -153.5511
5057.229836 80.693 -152.3650
5093.876609 80.749 -151.1900
5130.788938 80.831 -150.0448
5167.968750 80.939 -148.9485
5205.417982 81.072 -147.9200
5243.138586 81.228 -146.9775
5281.132530 81.407 -146.1384
5319.401793 81.606 -145.4182
5357.948371 81.822 -144.8309
5396.774274 82.054 -144.3885
5435.881525 82.296 -144.1009
5475.272163 82.546 -143.9758
5514.948243 82.800 -144.0187
5554.911831 83.055 -144.2323
5595.165012 83.305 -144.6160
5635.709884 83.547 -145.1659
5676.548561 83.778 -145.8738
5717.683172 83.992 -146.7276
5759.115861 84.187 -147.7114
5800.848789 84.360 -148.8055
5842.884130 84.508 -149.9867
5885.224077 84.630 -151.2290
5927.870837 84.724 -152.5037
5970.826633 84.789 -153.7800
6014.093704 84.826 -155.0256
6057.674306 84.836 -156.2074
6101.570711 84.821 -157.2919
6145.785208 84.783 -158.2464
6190.320101 84.729 -159.0399
6235.177712 84.662 -159.6443
6280.360380 84.589 -160.0366
6325.870460 84.519 -160.2019
6371.710325 84.461 -160.1356
6417.882365 84.424 -159.8478
6464.388986 84.418 -159.3657
6511.232613 84.452 -158.7356
6558.415689 84.533 -158.0223
6605.940673 84.663 -157.3057
6653.810042 84.844 -156.6740
6702.026292 85.071 -156.2154
6750.591937 85.338 -156.0091
6799.509509 85.633 -156.1181
6848.781558 85.948 -156.5854
6898.410653 86.270 -157.4325
6948.399380 86.589 -158.6625
6998.750346 86.897 -160.2631
7049.466176 87.187 -162.2119
7100.549514 87.454 -164.4805
7152.003023 87.694 -167.0385
7203.829385 87.905 -169.8572
7256.031302 88.086 -172.9109
7308.611496 88.237 -176.1790
7361.572708 88.357 -179.6460
7414.917698 88.446 176.6997
7468.649249 88.502 172.8661
7522.770160 88.524 168.8602
7577.283253 88.509 164.6891
7632.191371 88.453 160.3627
7687.497376 88.352 155.8948
7743.204151 88.202 151.3041
7799.314600 87.999 146.6147
7855.831649 87.739 141.8553
7912.758244 87.419 137.0572
7970.097352 87.037 132.2520
8027.851962 86.594 127.4676
8086.025087 86.090 122.7254
8144.619758 85.527 118.0362
8203.639030 84.909 113.3969
8263.085980 84.240 108.7871
8322.963708 83.526 104.1662
8383.275334 82.773 99.4674
8444.024002 81.988 94.5919
8505.212881 81.181 89.3965
8566.845160 80.363 83.6736
8628.924051 79.547 77.1145
8691.452792 78.752 69.2438
8754.434642 77.999 59.3117
8817.872884 77.314 46.1775
8881.770826 76.726 28.4872
8946.131799 76.264 6.1019
9010.959157 75.947 -17.5692
9076.256282 75.787 -37.7482
9142.026576 75.780 -52.9760
9208.273470 75.910 -64.2944
9275.000415 76.154 -73.0093
9342.210891 76.485 -80.0417
9409.908403 76.877 -85.9756
9478.096478 77.310 -91.1827
9546.778672 77.764 -95.9095
9615.958566 78.226 -100.3275
9685.639765 78.683 -104.5607
9755.825904 79.125 -108.7009
9826.520640 79.543 -112.8157
9897.727659 79.929 -116.9531
9969.450674 80.275 -121.1440
10041.693423 80.574 -125.4034
10114.459673 80.821 -129.7316
10187.753217 81.007 -134.1150
10261.577877 81.130 -138.5269
10335.937500 81.185 -142.9291
10410.835964 81.171 -147.2740
10486.277173 81.088 -151.5095
10562.265060 80.938 -155.5824
10638.803587 80.728 -159.4445
10715.896743 80.465 -163.0571
10793.548548 80.158 -166.3951
10871.763050 79.819 -169.4492
10950.544327 79.461 -172.2281
11029.896485 79.095 -174.7590
11109.823662 78.734 -177.0858
11190.330024 78.388 -179.2660
11271.419768 78.064 178.6343
11353.097122 77.767 176.5485
11435.366344 77.493 174.4180
11518.231722 77.236 172.2000
11601.697577 76.987 169.8748
11685.768261 76.732 167.4492
11770.448155 76.459 164.9557
11855.741674 76.157 162.4491
11941.653265 75.819 159.9968
12028.187408 75.443 157.6688
12115.348612 75.032 155.5247
12203.141422 74.594 153.6023
12291.570415 74.139 151.9086
12380.640201 73.684 150.4139
12470.355424 73.242 149.0516
12560.720760 72.827 147.7268
12651.740920 72.449 146.3312
12743.420650 72.108 144.7628
12835.764729 71.801 142.9440
12928.777972 71.513 140.8339
13022.465227 71.230 138.4315
13116.831378 70.932 135.7739
13211.881345 70.603 132.9290
13307.620084 70.229 129.9869
13404.052584 69.801 127.0521
13501.183875 69.312 124.2352
13599.019019 68.762 121.6475
13697.563116 68.152 119.3964
13796.821305 67.489 117.5809
13896.798760 66.782 116.2913
13997.500692 66.045 115.6102
14098.932352 65.294 115.6184
14201.099028 64.550 116.3965
14304.006046 63.841 118.0127
14407.658770 63.197 120.4817
14512.062604 62.656 123.6929
14617.222992 62.247 127.3389
14723.145416 61.993 130.9183
14829.835397 61.890 133.8625
14937.298497 61.915 135.7220
15045.540320 62.030 136.2820
15154.566507 62.191 135.5504
15264.382743 62.364 133.6766
15374.994752 62.525 130.8665
15486.408302 62.662 127.3235
15598.629201 62.775 123.2145
15711.663298 62.871 118.6553
15825.516487 62.959 113.7102
15940.194703 63.044 108.4011
16055.703925 63.127 102.7227
16172.050174 63.203 96.6595
16289.239516 63.260 90.2015
16407.278061 63.283 83.3560
16526.171961 63.258 76.1541
16645.927415 63.170 68.6548
16766.550667 63.007 60.9435
16888.048005 62.762 53.1310
17010.425762 62.430 45.3523
17133.690320 62.010 37.7642
17257.848103 61.503 30.5430
17382.905584 60.916 23.8810
17508.869284 60.256 17.9718
17635.745768 59.534 12.9821
17763.541652 58.763 8.9933
17892.263597 57.961 5.9175
18021.918315 57.144 3.4266
18152.512564 56.331 0.9735
18284.053153 55.540 -2.0570
18416.546939 54.785 -6.1572
18550.000830 54.075 -11.6016
18684.421783 53.413 -18.4753
18819.816805 52.797 -26.7525
18956.192956 52.222 -36.3502
19093.557344 51.681 -47.1185
19231.917131 51.171 -58.7587
19371.279531 50.697 -70.6981
19511.651807 50.271 -82.0345
19653.041280 49.916 -91.6779
19795.455318 49.657 -98.6457
19938.901348 49.520 -102.2805
