* Measurement data measured by REW V5.31.3
* Source: EXCL: Headset (USB-C to 3.5mm Headphone Jack Adapter), MICROPHONE (Master Volume), 0, volume: 0.260
* Format: 256k Log Swept Sine, 1 sweep at -12.0 dBFS with no timing reference
* Dated: Mar 7, 2025 11:52:57 AM
* REW Settings:
*  C-weighting compensation: Off
*  Target level: 75.0 dB
* Note: ; 
* Measurement: Massive Mod V1 L2
* Smoothing: 1/6 octave
* Frequency Step: 96 ppo
* Start Frequency: 20.0 Hz
*
* Freq(Hz) SPL(dB) Phase(degrees)
20.141602 92.157 -32.3161
20.287556 92.169 -32.5846
20.434568 92.184 -32.9443
20.582645 92.203 -33.3851
20.731796 92.225 -33.8955
20.882027 92.251 -34.4636
21.033346 92.280 -35.0772
21.185763 92.312 -35.7243
21.339284 92.346 -36.3932
21.493917 92.383 -37.0731
21.649671 92.423 -37.7539
21.806553 92.465 -38.4268
21.964572 92.509 -39.0843
22.123737 92.556 -39.7212
22.284054 92.607 -40.3342
22.445534 92.661 -40.9226
22.608183 92.719 -41.4879
22.772012 92.781 -42.0344
22.937027 92.847 -42.5679
23.103238 92.916 -43.0960
23.270654 92.989 -43.6268
23.439282 93.064 -44.1683
23.609133 93.140 -44.7276
23.780215 93.216 -45.3100
23.952536 93.292 -45.9189
24.126106 93.365 -46.5549
24.300934 93.435 -47.2165
24.477028 93.502 -47.8998
24.654399 93.564 -48.5996
24.833055 93.624 -49.3099
25.013005 93.680 -50.0243
25.194260 93.735 -50.7376
25.376828 93.789 -51.4455
25.560719 93.844 -52.1459
25.745942 93.901 -52.8387
25.932508 93.961 -53.5258
26.120426 94.025 -54.2105
26.309705 94.094 -54.8974
26.500356 94.167 -55.5917
26.692388 94.245 -56.2978
26.885812 94.328 -57.0197
27.080638 94.413 -57.7597
27.276876 94.501 -58.5186
27.474535 94.590 -59.2956
27.673627 94.680 -60.0885
27.874161 94.770 -60.8936
28.076149 94.859 -61.7064
28.279600 94.947 -62.5220
28.484526 95.033 -63.3352
28.690937 95.116 -64.1406
28.898843 95.196 -64.9334
29.108256 95.274 -65.7091
29.319186 95.348 -66.4645
29.531645 95.418 -67.1969
29.745644 95.486 -67.9055
29.961193 95.551 -68.5909
30.178304 95.614 -69.2555
30.396989 95.675 -69.9035
30.617258 95.736 -70.5401
30.839123 95.795 -71.1716
31.062596 95.854 -71.8045
31.287688 95.913 -72.4447
31.514412 95.972 -73.0969
31.742778 96.032 -73.7641
31.972800 96.093 -74.4471
32.204488 96.155 -75.1450
32.437855 96.218 -75.8549
32.672913 96.284 -76.5726
32.909674 96.352 -77.2929
33.148151 96.423 -78.0105
33.388356 96.497 -78.7200
33.630302 96.575 -79.4167
33.874001 96.654 -80.0969
34.119466 96.736 -80.7578
34.366710 96.819 -81.3984
34.615745 96.902 -82.0187
34.866585 96.985 -82.6205
35.119243 97.065 -83.2071
35.373731 97.143 -83.7829
35.630064 97.217 -84.3530
35.888254 97.287 -84.9229
36.148315 97.352 -85.4977
36.410261 97.412 -86.0817
36.674104 97.467 -86.6776
36.939860 97.518 -87.2871
37.207542 97.564 -87.9100
37.477163 97.607 -88.5452
37.748738 97.647 -89.1904
38.022281 97.684 -89.8433
38.297806 97.720 -90.5013
38.575327 97.755 -91.1624
38.854860 97.788 -91.8255
39.136419 97.820 -92.4900
39.420017 97.852 -93.1567
39.705671 97.882 -93.8267
39.993395 97.912 -94.5019
40.283203 97.940 -95.1843
40.575112 97.968 -95.8758
40.869136 97.995 -96.5777
41.165290 98.022 -97.2908
41.463591 98.049 -98.0155
41.764053 98.076 -98.7511
42.066693 98.104 -99.4970
42.371525 98.134 -100.2520
42.678567 98.165 -101.0150
42.987834 98.197 -101.7846
43.299341 98.232 -102.5598
43.613106 98.268 -103.3395
43.929145 98.307 -104.1227
44.247473 98.347 -104.9089
44.568109 98.388 -105.6977
44.891068 98.431 -106.4888
45.216367 98.475 -107.2819
45.544023 98.520 -108.0761
45.874054 98.565 -108.8705
46.206476 98.610 -109.6631
46.541307 98.655 -110.4522
46.878565 98.700 -111.2360
47.218266 98.744 -112.0129
47.560429 98.787 -112.7827
47.905072 98.830 -113.5457
48.252212 98.871 -114.3031
48.601867 98.912 -115.0568
48.954056 98.952 -115.8085
49.308798 98.992 -116.5599
49.666109 99.030 -117.3121
50.026010 99.067 -118.0659
50.388520 99.104 -118.8217
50.753656 99.139 -119.5793
51.121437 99.174 -120.3389
51.491884 99.207 -121.1006
51.865016 99.238 -121.8645
52.240851 99.267 -122.6307
52.619410 99.294 -123.3994
53.000712 99.317 -124.1702
53.384777 99.337 -124.9425
53.771625 99.353 -125.7154
54.161276 99.365 -126.4877
54.553751 99.373 -127.2584
54.949070 99.377 -128.0265
55.347254 99.376 -128.7914
55.748323 99.372 -129.5526
56.152298 99.363 -130.3098
56.559201 99.350 -131.0634
56.969052 99.334 -131.8137
57.381873 99.314 -132.5613
57.797686 99.293 -133.3066
58.216512 99.270 -134.0487
58.638373 99.249 -134.7855
59.063291 99.231 -135.5138
59.491288 99.219 -136.2303
59.922386 99.214 -136.9326
60.356608 99.217 -137.6203
60.793977 99.228 -138.2946
61.234515 99.245 -138.9578
61.678246 99.265 -139.6125
62.125192 99.288 -140.2609
62.575377 99.309 -140.9049
63.028824 99.328 -141.5461
63.485557 99.344 -142.1857
63.945599 99.354 -142.8246
64.408975 99.360 -143.4627
64.875709 99.361 -144.0999
65.345825 99.358 -144.7353
65.819348 99.351 -145.3685
66.296302 99.340 -145.9987
66.776713 99.327 -146.6256
67.260604 99.311 -147.2488
67.748002 99.294 -147.8679
68.238932 99.276 -148.4824
68.733420 99.257 -149.0921
69.231490 99.238 -149.6970
69.733170 99.219 -150.2970
70.238485 99.199 -150.8922
70.747463 99.179 -151.4827
71.260128 99.159 -152.0687
71.776508 99.138 -152.6500
72.296630 99.117 -153.2266
72.820521 99.095 -153.7983
73.348209 99.073 -154.3649
73.879720 99.050 -154.9260
74.415083 99.027 -155.4817
74.954326 99.004 -156.0317
75.497475 98.980 -156.5758
76.044561 98.955 -157.1138
76.595612 98.930 -157.6459
77.150655 98.905 -158.1724
77.709720 98.879 -158.6940
78.272837 98.853 -159.2110
78.840034 98.826 -159.7240
79.411342 98.799 -160.2327
79.986789 98.771 -160.7369
80.566406 98.742 -161.2363
81.150224 98.713 -161.7308
81.738272 98.683 -162.2202
82.330581 98.653 -162.7047
82.927182 98.623 -163.1846
83.528107 98.593 -163.6598
84.133386 98.562 -164.1304
84.743051 98.531 -164.5959
85.357134 98.501 -165.0555
85.975667 98.470 -165.5087
86.598682 98.440 -165.9547
87.226212 98.411 -166.3929
87.858289 98.382 -166.8233
88.494946 98.355 -167.2459
89.136217 98.328 -167.6612
89.782135 98.302 -168.0697
90.432733 98.276 -168.4719
91.088046 98.251 -168.8683
91.748108 98.227 -169.2591
92.412952 98.202 -169.6444
93.082615 98.177 -170.0240
93.757130 98.151 -170.3976
94.436533 98.124 -170.7647
95.120859 98.096 -171.1250
95.810144 98.066 -171.4785
96.504423 98.034 -171.8258
97.203734 98.001 -172.1676
97.908112 97.965 -172.5050
98.617595 97.928 -172.8389
99.332219 97.888 -173.1698
100.052021 97.846 -173.4978
100.777039 97.803 -173.8228
101.507311 97.758 -174.1445
102.242875 97.713 -174.4627
102.983769 97.668 -174.7769
103.730032 97.623 -175.0864
104.481702 97.579 -175.3906
105.238820 97.537 -175.6894
106.001424 97.496 -175.9832
106.769554 97.458 -176.2732
107.543250 97.422 -176.5606
108.322553 97.388 -176.8465
109.107503 97.357 -177.1316
109.898141 97.327 -177.4160
110.694508 97.299 -177.7000
111.496646 97.272 -177.9838
112.304596 97.245 -178.2678
113.118402 97.217 -178.5527
113.938104 97.189 -178.8387
114.763747 97.160 -179.1256
115.595372 97.130 -179.4128
116.433024 97.097 -179.6987
117.276746 97.063 -179.9813
118.126581 97.028 179.7419
118.982575 96.992 179.4734
119.844772 96.955 179.2145
120.713217 96.917 178.9659
121.587954 96.880 178.7266
122.469031 96.844 178.4946
123.356492 96.808 178.2677
124.250384 96.774 178.0436
125.150753 96.740 177.8206
126.057647 96.708 177.5972
126.971113 96.677 177.3721
127.891198 96.648 177.1445
128.817950 96.619 176.9136
129.751418 96.592 176.6790
130.691651 96.565 176.4411
131.638696 96.538 176.2008
132.592604 96.512 175.9597
133.553425 96.485 175.7198
134.521208 96.457 175.4827
135.496004 96.428 175.2501
136.477864 96.398 175.0230
137.466839 96.366 174.8023
138.462981 96.331 174.5882
139.466340 96.294 174.3812
140.476971 96.254 174.1815
141.494925 96.210 173.9901
142.520256 96.163 173.8077
143.553016 96.113 173.6353
144.593260 96.061 173.4737
145.641043 96.006 173.3233
146.696418 95.950 173.1841
147.759441 95.893 173.0554
148.830166 95.835 172.9366
149.908651 95.778 172.8270
150.994951 95.722 172.7264
152.089123 95.667 172.6349
153.191223 95.613 172.5534
154.301310 95.560 172.4832
155.419441 95.508 172.4258
156.545674 95.458 172.3830
157.680069 95.408 172.3560
158.822683 95.360 172.3461
159.973578 95.312 172.3540
161.132813 95.266 172.3805
162.300447 95.220 172.4260
163.476543 95.177 172.4905
164.661162 95.134 172.5738
165.854364 95.094 172.6751
167.056213 95.055 172.7932
168.266772 95.019 172.9261
169.486102 94.986 173.0718
170.714268 94.957 173.2275
171.951334 94.930 173.3901
173.197364 94.908 173.5560
174.452424 94.888 173.7215
175.716578 94.872 173.8827
176.989893 94.860 174.0358
178.272434 94.849 174.1773
179.564270 94.841 174.3042
180.865467 94.835 174.4141
182.176092 94.829 174.5047
183.496216 94.824 174.5747
184.825905 94.818 174.6233
186.165229 94.811 174.6507
187.514259 94.803 174.6580
188.873065 94.792 174.6467
190.241717 94.780 174.6188
191.620287 94.764 174.5765
193.008847 94.746 174.5218
194.407468 94.726 174.4566
195.816225 94.702 174.3826
197.235190 94.676 174.3012
198.664438 94.647 174.2140
200.104042 94.616 174.1222
201.554078 94.583 174.0275
203.014622 94.549 173.9317
204.485750 94.513 173.8365
205.967538 94.477 173.7432
207.460064 94.442 173.6530
208.963405 94.408 173.5662
210.477640 94.376 173.4825
212.002848 94.347 173.4008
213.539108 94.321 173.3200
215.086500 94.299 173.2389
216.645105 94.281 173.1566
218.215005 94.268 173.0726
219.796281 94.260 172.9872
221.389015 94.257 172.9008
222.993292 94.258 172.8136
224.609193 94.263 172.7260
226.236804 94.271 172.6380
227.876209 94.283 172.5495
229.527494 94.298 172.4603
231.190745 94.314 172.3698
232.866048 94.332 172.2779
234.553491 94.351 172.1841
236.253163 94.371 172.0883
237.965150 94.391 171.9905
239.689544 94.410 171.8911
241.426433 94.429 171.7906
243.175909 94.446 171.6894
244.938062 94.462 171.5885
246.712984 94.477 171.4887
248.500768 94.490 171.3908
250.301507 94.501 171.2957
252.115295 94.511 171.2038
253.942226 94.520 171.1154
255.782396 94.528 171.0306
257.635901 94.534 170.9494
259.502837 94.539 170.8721
261.383301 94.544 170.7991
263.277392 94.547 170.7311
265.185209 94.548 170.6693
267.106850 94.548 170.6145
269.042417 94.546 170.5682
270.992009 94.541 170.5310
272.955729 94.534 170.5027
274.933678 94.523 170.4822
276.925961 94.508 170.4673
278.932681 94.490 170.4560
280.953942 94.467 170.4469
282.989850 94.441 170.4388
285.040511 94.410 170.4314
287.106032 94.374 170.4249
289.186521 94.335 170.4197
291.282086 94.291 170.4166
293.392836 94.243 170.4163
295.518881 94.192 170.4191
297.660333 94.137 170.4254
299.817302 94.081 170.4348
301.989902 94.023 170.4470
304.178245 93.964 170.4617
306.382446 93.904 170.4783
308.602620 93.846 170.4964
310.838882 93.788 170.5159
313.091348 93.733 170.5369
315.360137 93.680 170.5600
317.645367 93.631 170.5858
319.947156 93.585 170.6148
322.265625 93.544 170.6472
324.600895 93.508 170.6823
326.953086 93.477 170.7189
329.322323 93.452 170.7553
331.708729 93.432 170.7899
334.112427 93.417 170.8216
336.533543 93.408 170.8498
338.972204 93.404 170.8747
341.428536 93.406 170.8969
343.902668 93.412 170.9175
346.394729 93.423 170.9375
348.904848 93.437 170.9577
351.433156 93.455 170.9789
353.979786 93.475 171.0011
356.544869 93.497 171.0241
359.128540 93.520 171.0471
361.730934 93.542 171.0695
364.352185 93.563 171.0903
366.992431 93.581 171.1091
369.651810 93.597 171.1255
372.330459 93.610 171.1395
375.028519 93.618 171.1516
377.746130 93.622 171.1622
380.483434 93.620 171.1722
383.240574 93.614 171.1823
386.017693 93.602 171.1932
388.814937 93.586 171.2052
391.632450 93.566 171.2190
394.470380 93.544 171.2352
397.328875 93.519 171.2548
400.208084 93.494 171.2788
403.108157 93.468 171.3084
406.029245 93.444 171.3441
408.971500 93.422 171.3855
411.935076 93.403 171.4319
414.920127 93.387 171.4821
417.926810 93.376 171.5347
420.955280 93.369 171.5885
424.005695 93.367 171.6424
427.078215 93.368 171.6954
430.173000 93.373 171.7465
433.290211 93.380 171.7949
436.430010 93.389 171.8398
439.592562 93.399 171.8813
442.778031 93.409 171.9196
445.986583 93.418 171.9553
449.218386 93.425 171.9891
452.473607 93.431 172.0221
455.752418 93.434 172.0553
459.054987 93.436 172.0900
462.381489 93.435 172.1273
465.732096 93.433 172.1682
469.106983 93.429 172.2134
472.506325 93.423 172.2629
475.930301 93.416 172.3166
479.379088 93.409 172.3737
482.852867 93.401 172.4334
486.351817 93.394 172.4948
489.876123 93.387 172.5570
493.425968 93.381 172.6191
497.001536 93.376 172.6804
500.603014 93.374 172.7400
504.230589 93.374 172.7969
507.884452 93.379 172.8505
511.564792 93.388 172.9004
515.271802 93.403 172.9462
519.005673 93.423 172.9879
522.766602 93.451 173.0258
526.554785 93.484 173.0600
530.370418 93.525 173.0908
534.213700 93.570 173.1186
538.084833 93.621 173.1440
541.984018 93.675 173.1678
545.911457 93.730 173.1909
549.867357 93.787 173.2139
553.851922 93.842 173.2374
557.865362 93.895 173.2619
561.907884 93.944 173.2876
565.979700 93.989 173.3146
570.081022 94.027 173.3427
574.212064 94.059 173.3716
578.373042 94.083 173.4009
582.564171 94.099 173.4297
586.785671 94.106 173.4574
591.037762 94.103 173.4836
595.320665 94.091 173.5078
599.634604 94.069 173.5299
603.979804 94.038 173.5500
608.356491 93.998 173.5681
612.764893 93.950 173.5840
617.205240 93.895 173.5981
621.677763 93.835 173.6103
626.182696 93.772 173.6210
630.720274 93.708 173.6304
635.290733 93.645 173.6383
639.894312 93.584 173.6445
644.531250 93.526 173.6486
649.201789 93.475 173.6500
653.906173 93.430 173.6484
658.644647 93.392 173.6431
663.417457 93.363 173.6338
668.224854 93.343 173.6200
673.067086 93.332 173.6014
677.944408 93.330 173.5778
682.857073 93.337 173.5488
687.805336 93.354 173.5141
692.789457 93.379 173.4731
697.809695 93.411 173.4259
702.866312 93.451 173.3725
707.959571 93.495 173.3135
713.089738 93.544 173.2498
718.257080 93.596 173.1825
723.461867 93.648 173.1129
728.704370 93.700 173.0422
733.984862 93.749 172.9714
739.303619 93.796 172.9011
744.660918 93.840 172.8309
750.057038 93.880 172.7596
755.492260 93.916 172.6855
760.966869 93.949 172.6067
766.481148 93.978 172.5215
772.035387 94.004 172.4291
777.629873 94.026 172.3293
783.264900 94.045 172.2223
788.940760 94.061 172.1089
794.657750 94.071 171.9900
800.416168 94.077 171.8664
806.216313 94.076 171.7387
812.058489 94.069 171.6072
817.943000 94.054 171.4719
823.870152 94.032 171.3328
829.840255 94.001 171.1898
835.853619 93.962 171.0432
841.910559 93.917 170.8933
848.011390 93.866 170.7404
854.156430 93.812 170.5847
860.346000 93.757 170.4264
866.580422 93.703 170.2657
872.860020 93.652 170.1027
879.185124 93.607 169.9375
885.556062 93.570 169.7705
891.973166 93.543 169.6021
898.436771 93.525 169.4325
904.947215 93.518 169.2620
911.504835 93.521 169.0909
918.109975 93.534 168.9192
924.762978 93.555 168.7469
931.464192 93.582 168.5737
938.213966 93.615 168.3989
945.012651 93.652 168.2217
951.860602 93.691 168.0408
958.758176 93.730 167.8550
965.705733 93.768 167.6633
972.703635 93.805 167.4651
979.752246 93.838 167.2605
986.851935 93.868 167.0501
994.003071 93.894 166.8348
1001.206027 93.917 166.6157
1008.461179 93.937 166.3938
1015.768904 93.955 166.1698
1023.129584 93.972 165.9443
1030.543603 93.990 165.7173
1038.011347 94.008 165.4888
1045.533205 94.029 165.2589
1053.109569 94.053 165.0281
1060.740836 94.080 164.7971
1068.427401 94.110 164.5671
1076.169666 94.143 164.3394
1083.968035 94.179 164.1155
1091.822915 94.215 163.8965
1099.734713 94.252 163.6828
1107.703844 94.288 163.4745
1115.730723 94.321 163.2712
1123.815768 94.351 163.0728
1131.959400 94.375 162.8793
1140.162045 94.393 162.6915
1148.424129 94.404 162.5101
1156.746083 94.410 162.3358
1165.128342 94.410 162.1689
1173.571343 94.407 162.0087
1182.075524 94.400 161.8543
1190.641331 94.392 161.7042
1199.269209 94.385 161.5568
1207.959608 94.379 161.4102
1216.712981 94.376 161.2629
1225.529785 94.377 161.1133
1234.410479 94.383 160.9601
1243.355526 94.393 160.8027
1252.365393 94.408 160.6412
1261.440549 94.426 160.4761
1270.581467 94.448 160.3089
1279.788624 94.472 160.1414
1289.062500 94.498 159.9763
1298.403578 94.525 159.8163
1307.812346 94.551 159.6636
1317.289293 94.576 159.5200
1326.834914 94.600 159.3868
1336.449707 94.621 159.2655
1346.134173 94.639 159.1575
1355.888816 94.653 159.0638
1365.714145 94.664 158.9849
1375.610673 94.671 158.9203
1385.578915 94.674 158.8695
1395.619391 94.673 158.8313
1405.732624 94.668 158.8049
1415.919142 94.659 158.7892
1426.179476 94.647 158.7837
1436.514160 94.632 158.7875
1446.923734 94.614 158.8005
1457.408740 94.592 158.8226
1467.969724 94.568 158.8545
1478.607238 94.541 158.8969
1489.321836 94.512 158.9503
1500.114076 94.480 159.0152
1510.984521 94.445 159.0917
1521.933737 94.407 159.1802
1532.962297 94.366 159.2811
1544.070773 94.322 159.3946
1555.259747 94.276 159.5201
1566.529800 94.227 159.6558
1577.881521 94.175 159.7995
1589.315501 94.122 159.9492
1600.832336 94.067 160.1041
1612.432627 94.010 160.2661
1624.116978 93.951 160.4386
1635.886000 93.891 160.6269
1647.740304 93.830 160.8363
1659.680509 93.768 161.0713
1671.707238 93.708 161.3348
1683.821118 93.648 161.6278
1696.022780 93.591 161.9500
1708.312860 93.537 162.2999
1720.692000 93.487 162.6747
1733.160843 93.441 163.0697
1745.720041 93.401 163.4783
1758.370248 93.367 163.8933
1771.112124 93.340 164.3084
1783.946332 93.318 164.7189
1796.873543 93.303 165.1223
1809.894429 93.294 165.5174
1823.009670 93.290 165.9039
1836.219950 93.291 166.2820
1849.525956 93.296 166.6527
1862.928384 93.303 167.0174
1876.427931 93.313 167.3780
1890.025301 93.325 167.7357
1903.721204 93.339 168.0904
1917.516352 93.353 168.4400
1931.411466 93.369 168.7806
1945.407270 93.386 169.1074
1959.504493 93.403 169.4160
1973.703870 93.421 169.7024
1988.006142 93.439 169.9636
2002.412054 93.458 170.1970
2016.922357 93.478 170.4005
2031.537808 93.499 170.5737
2046.259169 93.521 170.7170
2061.087206 93.544 170.8314
2076.022694 93.570 170.9172
2091.066410 93.598 170.9744
2106.219139 93.628 171.0031
2121.481671 93.661 171.0048
2136.854802 93.697 170.9817
2152.339333 93.735 170.9363
2167.936071 93.776 170.8709
2183.645829 93.820 170.7875
2199.469427 93.866 170.6891
2215.407689 93.915 170.5790
2231.461446 93.968 170.4607
2247.631536 94.024 170.3370
2263.918800 94.084 170.2101
2280.324089 94.148 170.0812
2296.848258 94.215 169.9517
2313.492167 94.287 169.8223
2330.256685 94.361 169.6941
2347.142685 94.439 169.5687
2364.151049 94.518 169.4482
2381.282662 94.599 169.3348
2398.538418 94.682 169.2308
2415.919216 94.765 169.1376
2433.425962 94.848 169.0554
2451.059570 94.931 168.9833
2468.820958 95.014 168.9191
2486.711052 95.095 168.8595
2504.730786 95.174 168.8008
2522.881098 95.251 168.7389
2541.162934 95.323 168.6698
2559.577248 95.390 168.5899
2578.125000 95.451 168.4966
2596.807157 95.504 168.3886
2615.624692 95.548 168.2662
2634.578586 95.582 168.1318
2653.669829 95.605 167.9894
2672.899414 95.616 167.8448
2692.268345 95.615 167.7053
2711.777632 95.602 167.5782
2731.428290 95.577 167.4715
2751.221345 95.541 167.3921
2771.157829 95.494 167.3460
2791.238781 95.438 167.3379
2811.465248 95.374 167.3708
2831.838284 95.302 167.4461
2852.358952 95.225 167.5646
2873.028321 95.142 167.7266
2893.847468 95.055 167.9326
2914.817480 94.965 168.1836
2935.939449 94.872 168.4807
2957.214476 94.778 168.8254
2978.643672 94.683 169.2189
3000.228152 94.589 169.6611
3021.969041 94.498 170.1500
3043.867475 94.411 170.6816
3065.924593 94.331 171.2488
3088.141547 94.259 171.8419
3110.519493 94.196 172.4492
3133.059600 94.143 173.0584
3155.763041 94.100 173.6570
3178.631001 94.067 174.2335
3201.664672 94.044 174.7786
3224.865254 94.029 175.2850
3248.233957 94.022 175.7480
3271.771999 94.022 176.1656
3295.480608 94.027 176.5387
3319.361019 94.037 176.8705
3343.414477 94.052 177.1674
3367.642236 94.070 177.4373
3392.045560 94.092 177.6901
3416.625721 94.120 177.9353
3441.383999 94.154 178.1807
3466.321686 94.196 178.4303
3491.440082 94.249 178.6827
3516.740496 94.315 178.9299
3542.224247 94.395 179.1573
3567.892664 94.490 179.3449
3593.747085 94.599 179.4697
3619.788858 94.720 179.5086
3646.019340 94.851 179.4411
3672.439900 94.986 179.2523
3699.051913 95.122 178.9339
3725.856768 95.255 178.4856
3752.855862 95.378 177.9140
3780.050603 95.490 177.2319
3807.442408 95.586 176.4567
3835.032705 95.665 175.6092
3862.822933 95.725 174.7116
3890.814540 95.765 173.7870
3919.008986 95.784 172.8580
3947.407741 95.784 171.9460
3976.012284 95.764 171.0709
4004.824108 95.725 170.2507
4033.844715 95.670 169.5015
4063.075616 95.599 168.8373
4092.518337 95.514 168.2697
4122.174412 95.417 167.8084
4152.045387 95.310 167.4612
4182.132820 95.195 167.2345
4212.438278 95.073 167.1329
4242.963342 94.947 167.1605
4273.709604 94.819 167.3201
4304.678665 94.691 167.6140
4335.872141 94.565 168.0429
4367.291658 94.445 168.6062
4398.938854 94.332 169.3011
4430.815378 94.230 170.1226
4462.922893 94.142 171.0624
4495.263072 94.069 172.1096
4527.837601 94.014 173.2506
4560.648179 93.979 174.4698
4593.696515 93.965 175.7504
4626.984334 93.972 177.0756
4660.513370 94.001 178.4288
4694.285371 94.052 179.7939
4728.302098 94.124 -178.8445
4762.565324 94.217 -177.5011
4797.076835 94.329 -176.1899
4831.838432 94.459 -174.9244
4866.851925 94.607 -173.7172
4902.119140 94.770 -172.5804
4937.641916 94.946 -171.5251
4973.422105 95.135 -170.5618
5009.461572 95.334 -169.6995
5045.762195 95.542 -168.9463
5082.325868 95.755 -168.3087
5119.154496 95.972 -167.7919
5156.250000 96.190 -167.3993
5193.614313 96.407 -167.1331
5231.249383 96.620 -166.9934
5269.157173 96.828 -166.9790
5307.339658 97.027 -167.0870
5345.798829 97.216 -167.3129
5384.536691 97.392 -167.6508
5423.555263 97.553 -168.0935
5462.856580 97.699 -168.6322
5502.442691 97.827 -169.2569
5542.315659 97.937 -169.9562
5582.477563 98.028 -170.7176
5622.930497 98.100 -171.5274
5663.676569 98.153 -172.3715
5704.717904 98.188 -173.2348
5746.056642 98.205 -174.1021
5787.694937 98.206 -174.9580
5829.634960 98.192 -175.7874
5871.878898 98.166 -176.5759
5914.428953 98.129 -177.3106
5957.287343 98.084 -177.9803
6000.456303 98.033 -178.5761
6043.938083 97.979 -179.0918
6087.734950 97.924 -179.5243
6131.849187 97.872 -179.8732
6176.283094 97.824 179.8587
6221.038987 97.784 179.6658
6266.119200 97.752 179.5396
6311.526083 97.733 179.4683
6357.262002 97.728 179.4374
6403.329344 97.741 179.4289
6449.730508 97.773 179.4218
6496.467914 97.827 179.3924
6543.543998 97.905 179.3141
6590.961215 98.009 179.1589
6638.722037 98.141 178.8971
6686.828954 98.299 178.4985
6735.284473 98.483 177.9335
6784.091120 98.691 177.1734
6833.251441 98.918 176.1922
6882.767998 99.160 174.9676
6932.643372 99.409 173.4827
6982.880164 99.658 171.7274
7033.480992 99.899 169.6997
7084.448495 100.123 167.4066
7135.785329 100.321 164.8644
7187.494171 100.487 162.0984
7239.577717 100.614 159.1419
7292.038681 100.697 156.0347
7344.879799 100.732 152.8207
7398.103826 100.719 149.5453
7451.713536 100.657 146.2527
7505.711724 100.550 142.9821
7560.101205 100.403 139.7654
7614.884815 100.221 136.6232
7670.065409 100.014 133.5626
7725.645865 99.791 130.5751
7781.629080 99.563 127.6357
7838.017972 99.340 124.7039
7894.815481 99.130 121.7273
7952.024569 98.939 118.6456
8009.648217 98.770 115.3975
8067.689429 98.618 111.9272
8126.151233 98.477 108.1906
8185.036674 98.337 104.1601
8244.348824 98.184 99.8274
8304.090774 98.003 95.2050
8364.265639 97.782 90.3251
8424.876556 97.509 85.2357
8485.926684 97.176 79.9950
8547.419207 96.779 74.6635
8609.357330 96.317 69.2952
8671.744282 95.794 63.9318
8734.583316 95.218 58.5973
8797.877707 94.597 53.2970
8861.630756 93.947 48.0176
8925.845785 93.284 42.7299
8990.526143 92.628 37.3920
9055.675202 92.004 31.9559
9121.296357 91.437 26.3732
9187.393031 90.957 20.6029
9253.968668 90.587 14.6175
9321.026740 90.342 8.4081
9388.570742 90.227 1.9847
9456.604196 90.231 -4.6255
9525.130648 90.333 -11.3835
9594.153671 90.504 -18.2441
9663.676863 90.715 -25.1610
9733.703850 90.937 -32.0879
9804.238280 91.146 -38.9808
9875.283832 91.323 -45.7955
9946.844210 91.453 -52.4868
10018.923143 91.526 -59.0082
10091.524390 91.538 -65.3138
10164.651736 91.486 -71.3597
10238.308993 91.372 -77.1084
10312.500000 91.201 -82.5305
10387.228626 90.979 -87.6063
10462.498767 90.713 -92.3264
10538.314345 90.410 -96.6899
10614.679315 90.077 -100.7028
10691.597657 89.720 -104.3744
10769.073381 89.344 -107.7148
10847.110526 88.952 -110.7318
10925.713161 88.547 -113.4291
11004.885382 88.131 -115.8077
11084.631318 87.707 -117.8676
11164.955126 87.280 -119.6118
11245.860993 86.853 -121.0513
11327.353138 86.432 -122.2079
11409.435808 86.023 -123.1145
11492.113283 85.633 -123.8134
11575.389873 85.266 -124.3511
11659.269920 84.926 -124.7759
11743.757796 84.618 -125.1352
11828.857906 84.343 -125.4759
11914.574686 84.104 -125.8457
12000.912606 83.902 -126.2937
12087.876166 83.738 -126.8701
12175.469900 83.609 -127.6239
12263.698373 83.513 -128.6005
12352.566187 83.442 -129.8376
12442.077974 83.389 -131.3622
12532.238400 83.346 -133.1878
12623.052165 83.303 -135.3134
12714.524005 83.254 -137.7245
12806.658687 83.193 -140.3974
12899.461015 83.119 -143.3044
12992.935827 83.036 -146.4209
13087.087996 82.951 -149.7320
13181.922430 82.878 -153.2385
13277.444074 82.831 -156.9614
13373.657907 82.829 -160.9455
13470.568945 82.886 -165.2588
13568.182241 83.015 -169.9908
13666.502883 83.218 -175.2483
13765.535996 83.490 178.8501
13865.286744 83.820 172.1795
13965.760328 84.187 164.6144
14066.961984 84.571 156.0355
14168.896989 84.951 146.3378
14271.570658 85.307 135.4430
14374.988342 85.623 123.3162
14479.155433 85.888 109.9910
14584.077362 86.094 95.5945
14689.759598 86.237 80.3641
14796.207652 86.315 64.6335
14903.427072 86.329 48.7815
15011.423448 86.284 33.1572
15120.202410 86.182 18.0199
15229.769630 86.030 3.5162
15340.130819 85.830 -10.3044
15451.291730 85.586 -23.4570
15563.258160 85.299 -35.9888
15676.035944 84.967 -47.9549
15789.630962 84.589 -59.4007
15904.049137 84.160 -70.3542
16019.296433 83.675 -80.8205
16135.378859 83.129 -90.7816
16252.302465 82.516 -100.2011
16370.073348 81.835 -109.0312
16488.697648 81.082 -117.2244
16608.181548 80.261 -124.7441
16728.531278 79.372 -131.5759
16849.753112 78.420 -137.7378
16971.853368 77.411 -143.2830
17094.838414 76.350 -148.3003
17218.714660 75.243 -152.9053
17343.488565 74.096 -157.2271
17469.166632 72.915 -161.3940
17595.755415 71.706 -165.5188
17723.261512 70.475 -169.6854
17851.691571 69.227 -173.9385
17981.052287 67.969 -178.2747
18111.350404 66.704 177.3628
18242.592715 65.440 173.0945
18374.786062 64.183 169.1251
18507.937336 62.940 165.7891
18642.053479 61.722 163.6283
18777.141484 60.541 163.5125
18913.208391 59.411 166.7277
19050.261296 58.349 174.6050
19188.307342 57.372 -173.2778
19327.353727 56.498 -160.8271
19467.407699 55.741 -151.9878
19608.476560 55.114 -147.2012
19750.567664 54.630 -145.1002
19893.688419 54.300 -144.3750
20037.846286 54.132 -144.2020
