* Measurement data measured by REW V5.31.3
* Source: EXCL: Headset (USB-C to 3.5mm Headphone Jack Adapter), MICROPHONE (Master Volume), 0, volume: 0.260
* Format: 256k Log Swept Sine, 1 sweep at -12.0 dBFS with no timing reference
* Dated: Mar 7, 2025 11:57:03 AM
* REW Settings:
*  C-weighting compensation: Off
*  Target level: 75.0 dB
* Note: ; 
* Measurement: Massive Mod V1 R5
* Smoothing: 1/6 octave
* Frequency Step: 96 ppo
* Start Frequency: 20.0 Hz
*
* Freq(Hz) SPL(dB) Phase(degrees)
20.141602 92.720 -42.3138
20.287556 92.727 -42.5110
20.434568 92.737 -42.7720
20.582645 92.750 -43.0863
20.731796 92.767 -43.4438
20.882027 92.787 -43.8357
21.033346 92.811 -44.2559
21.185763 92.840 -44.7010
21.339284 92.872 -45.1697
21.493917 92.909 -45.6630
21.649671 92.949 -46.1826
21.806553 92.993 -46.7308
21.964572 93.039 -47.3096
22.123737 93.088 -47.9198
22.284054 93.138 -48.5614
22.445534 93.190 -49.2326
22.608183 93.241 -49.9305
22.772012 93.293 -50.6508
22.937027 93.345 -51.3881
23.103238 93.396 -52.1365
23.270654 93.446 -52.8897
23.439282 93.495 -53.6414
23.609133 93.542 -54.3855
23.780215 93.588 -55.1165
23.952536 93.631 -55.8292
24.126106 93.672 -56.5196
24.300934 93.711 -57.1844
24.477028 93.747 -57.8214
24.654399 93.780 -58.4300
24.833055 93.812 -59.0109
25.013005 93.842 -59.5668
25.194260 93.872 -60.1023
25.376828 93.903 -60.6242
25.560719 93.936 -61.1411
25.745942 93.973 -61.6629
25.932508 94.015 -62.2004
26.120426 94.062 -62.7642
26.309705 94.116 -63.3631
26.500356 94.177 -64.0039
26.692388 94.244 -64.6894
26.885812 94.316 -65.4188
27.080638 94.394 -66.1866
27.276876 94.475 -66.9838
27.474535 94.558 -67.7979
27.673627 94.643 -68.6149
27.874161 94.730 -69.4199
28.076149 94.815 -70.1991
28.279600 94.901 -70.9409
28.484526 94.984 -71.6370
28.690937 95.066 -72.2831
28.898843 95.144 -72.8788
29.108256 95.219 -73.4278
29.319186 95.291 -73.9370
29.531645 95.358 -74.4158
29.745644 95.420 -74.8751
29.961193 95.478 -75.3261
30.178304 95.530 -75.7794
30.396989 95.578 -76.2442
30.617258 95.623 -76.7275
30.839123 95.664 -77.2338
31.062596 95.703 -77.7647
31.287688 95.741 -78.3190
31.514412 95.781 -78.8930
31.742778 95.822 -79.4812
31.972800 95.867 -80.0773
32.204488 95.918 -80.6747
32.437855 95.975 -81.2683
32.672913 96.039 -81.8545
32.909674 96.111 -82.4321
33.148151 96.191 -83.0023
33.388356 96.278 -83.5682
33.630302 96.370 -84.1341
33.874001 96.466 -84.7046
34.119466 96.563 -85.2837
34.366710 96.660 -85.8741
34.615745 96.755 -86.4770
34.866585 96.846 -87.0919
35.119243 96.932 -87.7175
35.373731 97.013 -88.3513
35.630064 97.088 -88.9910
35.888254 97.158 -89.6342
36.148315 97.221 -90.2791
36.410261 97.279 -90.9239
36.674104 97.332 -91.5671
36.939860 97.379 -92.2077
37.207542 97.421 -92.8448
37.477163 97.459 -93.4781
37.748738 97.493 -94.1083
38.022281 97.525 -94.7375
38.297806 97.554 -95.3691
38.575327 97.584 -96.0077
38.854860 97.614 -96.6582
39.136419 97.646 -97.3256
39.420017 97.679 -98.0135
39.705671 97.715 -98.7237
39.993395 97.752 -99.4555
40.283203 97.790 -100.2065
40.575112 97.829 -100.9724
40.869136 97.868 -101.7487
41.165290 97.907 -102.5308
41.463591 97.946 -103.3147
41.764053 97.984 -104.0979
42.066693 98.023 -104.8785
42.371525 98.061 -105.6553
42.678567 98.100 -106.4277
42.987834 98.139 -107.1951
43.299341 98.180 -107.9574
43.613106 98.221 -108.7148
43.929145 98.263 -109.4682
44.247473 98.306 -110.2190
44.568109 98.349 -110.9691
44.891068 98.391 -111.7202
45.216367 98.431 -112.4733
45.544023 98.468 -113.2288
45.874054 98.501 -113.9858
46.206476 98.531 -114.7430
46.541307 98.557 -115.4984
46.878565 98.581 -116.2507
47.218266 98.604 -116.9985
47.560429 98.626 -117.7419
47.905072 98.648 -118.4817
48.252212 98.671 -119.2196
48.601867 98.696 -119.9587
48.954056 98.722 -120.7024
49.308798 98.750 -121.4545
49.666109 98.780 -122.2180
50.026010 98.810 -122.9944
50.388520 98.841 -123.7836
50.753656 98.871 -124.5831
51.121437 98.901 -125.3888
51.491884 98.930 -126.1959
51.865016 98.957 -126.9994
52.240851 98.982 -127.7952
52.619410 99.005 -128.5807
53.000712 99.025 -129.3551
53.384777 99.041 -130.1192
53.771625 99.053 -130.8746
54.161276 99.061 -131.6239
54.553751 99.064 -132.3695
54.949070 99.063 -133.1135
55.347254 99.057 -133.8572
55.748323 99.047 -134.6014
56.152298 99.035 -135.3458
56.559201 99.020 -136.0899
56.969052 99.004 -136.8329
57.381873 98.989 -137.5734
57.797686 98.974 -138.3101
58.216512 98.961 -139.0415
58.638373 98.949 -139.7661
59.063291 98.939 -140.4824
59.491288 98.931 -141.1893
59.922386 98.923 -141.8863
60.356608 98.917 -142.5738
60.793977 98.911 -143.2525
61.234515 98.906 -143.9238
61.678246 98.901 -144.5887
62.125192 98.896 -145.2476
62.575377 98.890 -145.9007
63.028824 98.883 -146.5472
63.485557 98.875 -147.1864
63.945599 98.865 -147.8174
64.408975 98.853 -148.4399
64.875709 98.839 -149.0538
65.345825 98.823 -149.6600
65.819348 98.803 -150.2599
66.296302 98.782 -150.8551
66.776713 98.759 -151.4472
67.260604 98.735 -152.0376
67.748002 98.709 -152.6273
68.238932 98.683 -153.2165
68.733420 98.657 -153.8048
69.231490 98.630 -154.3907
69.733170 98.603 -154.9725
70.238485 98.577 -155.5477
70.747463 98.550 -156.1143
71.260128 98.524 -156.6710
71.776508 98.497 -157.2173
72.296630 98.470 -157.7536
72.820521 98.444 -158.2811
73.348209 98.418 -158.8010
73.879720 98.391 -159.3145
74.415083 98.365 -159.8223
74.954326 98.339 -160.3246
75.497475 98.312 -160.8215
76.044561 98.285 -161.3136
76.595612 98.257 -161.8011
77.150655 98.228 -162.2850
77.709720 98.198 -162.7657
78.272837 98.167 -163.2432
78.840034 98.135 -163.7171
79.411342 98.102 -164.1866
79.986789 98.068 -164.6509
80.566406 98.034 -165.1090
81.150224 97.999 -165.5605
81.738272 97.964 -166.0051
82.330581 97.929 -166.4430
82.927182 97.893 -166.8745
83.528107 97.858 -167.3002
84.133386 97.822 -167.7203
84.743051 97.786 -168.1350
85.357134 97.751 -168.5441
85.975667 97.716 -168.9473
86.598682 97.682 -169.3440
87.226212 97.648 -169.7337
87.858289 97.615 -170.1157
88.494946 97.583 -170.4893
89.136217 97.552 -170.8545
89.782135 97.522 -171.2110
90.432733 97.493 -171.5593
91.088046 97.466 -171.8998
91.748108 97.439 -172.2335
92.412952 97.413 -172.5613
93.082615 97.388 -172.8845
93.757130 97.363 -173.2043
94.436533 97.337 -173.5218
95.120859 97.311 -173.8376
95.810144 97.284 -174.1521
96.504423 97.255 -174.4649
97.203734 97.225 -174.7759
97.908112 97.192 -175.0847
98.617595 97.158 -175.3909
99.332219 97.122 -175.6945
100.052021 97.083 -175.9956
100.777039 97.043 -176.2942
101.507311 97.001 -176.5901
102.242875 96.958 -176.8828
102.983769 96.913 -177.1715
103.730032 96.869 -177.4551
104.481702 96.824 -177.7325
105.238820 96.781 -178.0030
106.001424 96.739 -178.2668
106.769554 96.700 -178.5250
107.543250 96.662 -178.7790
108.322553 96.627 -179.0299
109.107503 96.595 -179.2785
109.898141 96.565 -179.5253
110.694508 96.536 -179.7701
111.496646 96.509 179.9870
112.304596 96.483 179.7458
113.118402 96.458 179.5061
113.938104 96.433 179.2678
114.763747 96.408 179.0305
115.595372 96.382 178.7940
116.433024 96.355 178.5575
117.276746 96.327 178.3201
118.126581 96.297 178.0809
118.982575 96.265 177.8391
119.844772 96.231 177.5946
120.713217 96.195 177.3482
121.587954 96.157 177.1015
122.469031 96.118 176.8564
123.356492 96.078 176.6152
124.250384 96.038 176.3799
125.150753 95.998 176.1520
126.057647 95.958 175.9327
126.971113 95.919 175.7223
127.891198 95.881 175.5204
128.817950 95.845 175.3262
129.751418 95.810 175.1378
130.691651 95.777 174.9536
131.638696 95.745 174.7718
132.592604 95.715 174.5913
133.553425 95.686 174.4114
134.521208 95.658 174.2320
135.496004 95.631 174.0533
136.477864 95.603 173.8757
137.466839 95.574 173.7000
138.462981 95.543 173.5269
139.466340 95.511 173.3578
140.476971 95.476 173.1943
141.494925 95.438 173.0379
142.520256 95.398 172.8900
143.553016 95.354 172.7518
144.593260 95.308 172.6241
145.641043 95.259 172.5076
146.696418 95.208 172.4026
147.759441 95.155 172.3088
148.830166 95.101 172.2252
149.908651 95.047 172.1502
150.994951 94.994 172.0822
152.089123 94.942 172.0199
153.191223 94.891 171.9631
154.301310 94.843 171.9127
155.419441 94.797 171.8702
156.545674 94.753 171.8372
157.680069 94.711 171.8144
158.822683 94.671 171.8014
159.973578 94.632 171.7968
161.132813 94.594 171.7990
162.300447 94.556 171.8062
163.476543 94.518 171.8173
164.661162 94.480 171.8316
165.854364 94.442 171.8499
167.056213 94.404 171.8733
168.266772 94.365 171.9037
169.486102 94.327 171.9431
170.714268 94.289 171.9931
171.951334 94.252 172.0548
173.197364 94.216 172.1292
174.452424 94.181 172.2164
175.716578 94.148 172.3167
176.989893 94.117 172.4296
178.272434 94.087 172.5539
179.564270 94.060 172.6879
180.865467 94.034 172.8290
182.176092 94.010 172.9745
183.496216 93.988 173.1215
184.825905 93.967 173.2673
186.165229 93.947 173.4093
187.514259 93.928 173.5452
188.873065 93.910 173.6730
190.241717 93.891 173.7910
191.620287 93.873 173.8975
193.008847 93.854 173.9915
194.407468 93.835 174.0720
195.816225 93.815 174.1383
197.235190 93.795 174.1905
198.664438 93.774 174.2282
200.104042 93.753 174.2515
201.554078 93.732 174.2603
203.014622 93.710 174.2545
204.485750 93.689 174.2346
205.967538 93.668 174.2016
207.460064 93.647 174.1570
208.963405 93.626 174.1025
210.477640 93.606 174.0400
212.002848 93.588 173.9714
213.539108 93.572 173.8982
215.086500 93.558 173.8222
216.645105 93.548 173.7448
218.215005 93.541 173.6669
219.796281 93.538 173.5894
221.389015 93.539 173.5127
222.993292 93.544 173.4368
224.609193 93.552 173.3613
226.236804 93.563 173.2862
227.876209 93.578 173.2111
229.527494 93.595 173.1359
231.190745 93.614 173.0609
232.866048 93.635 172.9865
234.553491 93.658 172.9132
236.253163 93.682 172.8415
237.965150 93.707 172.7715
239.689544 93.732 172.7031
241.426433 93.757 172.6356
243.175909 93.782 172.5687
244.938062 93.805 172.5023
246.712984 93.827 172.4367
248.500768 93.848 172.3726
250.301507 93.868 172.3107
252.115295 93.886 172.2519
253.942226 93.903 172.1971
255.782396 93.920 172.1471
257.635901 93.937 172.1021
259.502837 93.953 172.0619
261.383301 93.969 172.0256
263.277392 93.984 171.9920
265.185209 93.998 171.9595
267.106850 94.009 171.9268
269.042417 94.018 171.8923
270.992009 94.023 171.8544
272.955729 94.023 171.8117
274.933678 94.020 171.7637
276.925961 94.011 171.7105
278.932681 93.998 171.6531
280.953942 93.980 171.5928
282.989850 93.957 171.5312
285.040511 93.930 171.4700
287.106032 93.899 171.4107
289.186521 93.864 171.3545
291.282086 93.825 171.3018
293.392836 93.783 171.2530
295.518881 93.736 171.2078
297.660333 93.687 171.1658
299.817302 93.635 171.1266
301.989902 93.582 171.0898
304.178245 93.527 171.0551
306.382446 93.471 171.0226
308.602620 93.416 170.9918
310.838882 93.362 170.9625
313.091348 93.309 170.9339
315.360137 93.258 170.9051
317.645367 93.210 170.8752
319.947156 93.166 170.8433
322.265625 93.125 170.8094
324.600895 93.089 170.7740
326.953086 93.057 170.7379
329.322323 93.030 170.7025
331.708729 93.008 170.6691
334.112427 92.992 170.6382
336.533543 92.981 170.6105
338.972204 92.975 170.5858
341.428536 92.974 170.5639
343.902668 92.977 170.5444
346.394729 92.985 170.5269
348.904848 92.996 170.5113
351.433156 93.010 170.4980
353.979786 93.026 170.4872
356.544869 93.043 170.4797
359.128540 93.060 170.4758
361.730934 93.077 170.4758
364.352185 93.093 170.4796
366.992431 93.106 170.4868
369.651810 93.116 170.4966
372.330459 93.122 170.5083
375.028519 93.124 170.5217
377.746130 93.121 170.5366
380.483434 93.114 170.5535
383.240574 93.102 170.5726
386.017693 93.085 170.5943
388.814937 93.064 170.6190
391.632450 93.040 170.6467
394.470380 93.013 170.6774
397.328875 92.984 170.7111
400.208084 92.954 170.7477
403.108157 92.925 170.7869
406.029245 92.897 170.8288
408.971500 92.872 170.8731
411.935076 92.850 170.9197
414.920127 92.832 170.9681
417.926810 92.819 171.0175
420.955280 92.810 171.0672
424.005695 92.805 171.1164
427.078215 92.805 171.1644
430.173000 92.808 171.2110
433.290211 92.813 171.2560
436.430010 92.820 171.2996
439.592562 92.828 171.3421
442.778031 92.836 171.3841
445.986583 92.843 171.4258
449.218386 92.848 171.4675
452.473607 92.852 171.5096
455.752418 92.854 171.5528
459.054987 92.853 171.5976
462.381489 92.851 171.6450
465.732096 92.847 171.6959
469.106983 92.841 171.7507
472.506325 92.835 171.8095
475.930301 92.827 171.8720
479.379088 92.819 171.9377
482.852867 92.810 172.0060
486.351817 92.802 172.0763
489.876123 92.794 172.1481
493.425968 92.787 172.2211
497.001536 92.782 172.2947
500.603014 92.779 172.3683
504.230589 92.779 172.4415
507.884452 92.784 172.5136
511.564792 92.793 172.5841
515.271802 92.808 172.6527
519.005673 92.829 172.7191
522.766602 92.856 172.7828
526.554785 92.890 172.8440
530.370418 92.931 172.9025
534.213700 92.978 172.9587
538.084833 93.030 173.0130
541.984018 93.086 173.0658
545.911457 93.144 173.1172
549.867357 93.204 173.1674
553.851922 93.263 173.2161
557.865362 93.320 173.2631
561.907884 93.374 173.3084
565.979700 93.422 173.3517
570.081022 93.464 173.3929
574.212064 93.500 173.4317
578.373042 93.527 173.4673
582.564171 93.546 173.4992
586.785671 93.557 173.5265
591.037762 93.557 173.5485
595.320665 93.548 173.5646
599.634604 93.530 173.5748
603.979804 93.502 173.5789
608.356491 93.465 173.5772
612.764893 93.421 173.5702
617.205240 93.369 173.5583
621.677763 93.313 173.5422
626.182696 93.254 173.5221
630.720274 93.193 173.4982
635.290733 93.133 173.4705
639.894312 93.075 173.4388
644.531250 93.021 173.4030
649.201789 92.972 173.3633
653.906173 92.930 173.3200
658.644647 92.895 173.2731
663.417457 92.868 173.2230
668.224854 92.849 173.1696
673.067086 92.839 173.1127
677.944408 92.838 173.0519
682.857073 92.846 172.9867
687.805336 92.862 172.9163
692.789457 92.886 172.8398
697.809695 92.916 172.7567
702.866312 92.953 172.6671
707.959571 92.995 172.5710
713.089738 93.039 172.4696
718.257080 93.086 172.3639
723.461867 93.133 172.2553
728.704370 93.179 172.1451
733.984862 93.223 172.0345
739.303619 93.264 171.9240
744.660918 93.301 171.8135
750.057038 93.335 171.7020
755.492260 93.364 171.5882
760.966869 93.390 171.4705
766.481148 93.412 171.3475
772.035387 93.430 171.2182
777.629873 93.445 171.0823
783.264900 93.457 170.9401
788.940760 93.464 170.7926
794.657750 93.467 170.6408
800.416168 93.464 170.4861
806.216313 93.455 170.3294
812.058489 93.439 170.1716
817.943000 93.415 170.0134
823.870152 93.383 169.8555
829.840255 93.342 169.6983
835.853619 93.293 169.5423
841.910559 93.237 169.3879
848.011390 93.175 169.2352
854.156430 93.109 169.0841
860.346000 93.042 168.9343
866.580422 92.976 168.7854
872.860020 92.913 168.6373
879.185124 92.857 168.4901
885.556062 92.808 168.3438
891.973166 92.769 168.1983
898.436771 92.741 168.0537
904.947215 92.723 167.9100
911.504835 92.716 167.7673
918.109975 92.719 167.6254
924.762978 92.731 167.4840
931.464192 92.749 167.3427
938.213966 92.774 167.2007
945.012651 92.801 167.0572
951.860602 92.831 166.9114
958.758176 92.861 166.7629
965.705733 92.890 166.6116
972.703635 92.916 166.4579
979.752246 92.939 166.3029
986.851935 92.959 166.1475
994.003071 92.975 165.9926
1001.206027 92.989 165.8383
1008.461179 93.000 165.6842
1015.768904 93.011 165.5287
1023.129584 93.022 165.3701
1030.543603 93.034 165.2062
1038.011347 93.047 165.0358
1045.533205 93.063 164.8582
1053.109569 93.082 164.6743
1060.740836 93.104 164.4856
1068.427401 93.129 164.2947
1076.169666 93.156 164.1042
1083.968035 93.185 163.9166
1091.822915 93.214 163.7336
1099.734713 93.244 163.5562
1107.703844 93.271 163.3851
1115.730723 93.295 163.2213
1123.815768 93.314 163.0661
1131.959400 93.327 162.9214
1140.162045 93.334 162.7893
1148.424129 93.334 162.6717
1156.746083 93.328 162.5699
1165.128342 93.316 162.4841
1173.571343 93.300 162.4136
1182.075524 93.282 162.3568
1190.641331 93.263 162.3117
1199.269209 93.245 162.2757
1207.959608 93.230 162.2462
1216.712981 93.218 162.2206
1225.529785 93.210 162.1969
1234.410479 93.207 162.1732
1243.355526 93.210 162.1490
1252.365393 93.217 162.1244
1261.440549 93.228 162.1008
1270.581467 93.243 162.0804
1279.788624 93.261 162.0661
1289.062500 93.280 162.0613
1298.403578 93.301 162.0695
1307.812346 93.322 162.0939
1317.289293 93.343 162.1372
1326.834914 93.364 162.2020
1336.449707 93.383 162.2903
1346.134173 93.402 162.4033
1355.888816 93.419 162.5408
1365.714145 93.435 162.7009
1375.610673 93.451 162.8803
1385.578915 93.465 163.0757
1395.619391 93.477 163.2834
1405.732624 93.488 163.5000
1415.919142 93.498 163.7225
1426.179476 93.506 163.9482
1436.514160 93.513 164.1749
1446.923734 93.518 164.4014
1457.408740 93.521 164.6276
1467.969724 93.524 164.8543
1478.607238 93.524 165.0831
1489.321836 93.523 165.3159
1500.114076 93.519 165.5553
1510.984521 93.515 165.8037
1521.933737 93.508 166.0633
1532.962297 93.501 166.3350
1544.070773 93.493 166.6177
1555.259747 93.484 166.9080
1566.529800 93.477 167.2006
1577.881521 93.470 167.4897
1589.315501 93.465 167.7706
1600.832336 93.460 168.0401
1612.432627 93.457 168.2967
1624.116978 93.455 168.5400
1635.886000 93.454 168.7701
1647.740304 93.455 168.9870
1659.680509 93.457 169.1906
1671.707238 93.460 169.3809
1683.821118 93.465 169.5583
1696.022780 93.469 169.7237
1708.312860 93.475 169.8781
1720.692000 93.481 170.0218
1733.160843 93.488 170.1545
1745.720041 93.495 170.2753
1758.370248 93.504 170.3841
1771.112124 93.514 170.4817
1783.946332 93.526 170.5693
1796.873543 93.540 170.6486
1809.894429 93.555 170.7204
1823.009670 93.573 170.7852
1836.219950 93.592 170.8431
1849.525956 93.613 170.8942
1862.928384 93.634 170.9383
1876.427931 93.656 170.9745
1890.025301 93.677 171.0019
1903.721204 93.696 171.0185
1917.516352 93.712 171.0230
1931.411466 93.725 171.0146
1945.407270 93.735 170.9937
1959.504493 93.740 170.9615
1973.703870 93.741 170.9197
1988.006142 93.737 170.8699
2002.412054 93.730 170.8138
2016.922357 93.720 170.7539
2031.537808 93.708 170.6925
2046.259169 93.695 170.6317
2061.087206 93.682 170.5720
2076.022694 93.669 170.5127
2091.066410 93.658 170.4525
2106.219139 93.650 170.3907
2121.481671 93.644 170.3275
2136.854802 93.642 170.2634
2152.339333 93.643 170.1991
2167.936071 93.648 170.1357
2183.645829 93.657 170.0748
2199.469427 93.672 170.0181
2215.407689 93.691 169.9672
2231.461446 93.716 169.9235
2247.631536 93.747 169.8874
2263.918800 93.785 169.8592
2280.324089 93.829 169.8385
2296.848258 93.880 169.8246
2313.492167 93.937 169.8163
2330.256685 94.000 169.8126
2347.142685 94.069 169.8137
2364.151049 94.142 169.8203
2381.282662 94.220 169.8343
2398.538418 94.300 169.8573
2415.919216 94.384 169.8904
2433.425962 94.470 169.9334
2451.059570 94.558 169.9850
2468.820958 94.647 170.0421
2486.711052 94.738 170.1002
2504.730786 94.828 170.1540
2522.881098 94.918 170.1971
2541.162934 95.006 170.2226
2559.577248 95.091 170.2238
2578.125000 95.172 170.1946
2596.807157 95.246 170.1306
2615.624692 95.313 170.0291
2634.578586 95.371 169.8899
2653.669829 95.417 169.7155
2672.899414 95.451 169.5110
2692.268345 95.471 169.2834
2711.777632 95.478 169.0415
2731.428290 95.469 168.7953
2751.221345 95.446 168.5551
2771.157829 95.408 168.3315
2791.238781 95.357 168.1344
2811.465248 95.292 167.9731
2831.838284 95.216 167.8560
2852.358952 95.128 167.7906
2873.028321 95.031 167.7840
2893.847468 94.925 167.8419
2914.817480 94.812 167.9694
2935.939449 94.694 168.1704
2957.214476 94.573 168.4475
2978.643672 94.449 168.8015
3000.228152 94.326 169.2313
3021.969041 94.205 169.7341
3043.867475 94.088 170.3054
3065.924593 93.977 170.9397
3088.141547 93.873 171.6307
3110.519493 93.778 172.3716
3133.059600 93.694 173.1550
3155.763041 93.622 173.9725
3178.631001 93.563 174.8144
3201.664672 93.519 175.6688
3224.865254 93.490 176.5220
3248.233957 93.477 177.3586
3271.771999 93.480 178.1631
3295.480608 93.499 178.9210
3319.361019 93.533 179.6205
3343.414477 93.581 -179.7464
3367.642236 93.641 -179.1833
3392.045560 93.712 -178.6899
3416.625721 93.794 -178.2635
3441.383999 93.884 -177.9000
3466.321686 93.983 -177.5958
3491.440082 94.091 -177.3494
3516.740496 94.208 -177.1624
3542.224247 94.334 -177.0391
3567.892664 94.468 -176.9866
3593.747085 94.608 -177.0135
3619.788858 94.754 -177.1283
3646.019340 94.902 -177.3378
3672.439900 95.050 -177.6467
3699.051913 95.196 -178.0560
3725.856768 95.337 -178.5630
3752.855862 95.469 -179.1615
3780.050603 95.591 -179.8416
3807.442408 95.701 179.4092
3835.032705 95.796 178.6056
3862.822933 95.877 177.7634
3890.814540 95.942 176.8993
3919.008986 95.991 176.0297
3947.407741 96.025 175.1702
3976.012284 96.044 174.3351
4004.824108 96.049 173.5371
4033.844715 96.041 172.7867
4063.075616 96.022 172.0923
4092.518337 95.993 171.4605
4122.174412 95.954 170.8962
4152.045387 95.907 170.4030
4182.132820 95.853 169.9832
4212.438278 95.794 169.6385
4242.963342 95.730 169.3701
4273.709604 95.663 169.1783
4304.678665 95.594 169.0628
4335.872141 95.524 169.0225
4367.291658 95.454 169.0555
4398.938854 95.386 169.1587
4430.815378 95.322 169.3289
4462.922893 95.260 169.5624
4495.263072 95.204 169.8558
4527.837601 95.152 170.2059
4560.648179 95.107 170.6106
4593.696515 95.067 171.0686
4626.984334 95.033 171.5795
4660.513370 95.007 172.1437
4694.285371 94.987 172.7618
4728.302098 94.976 173.4347
4762.565324 94.973 174.1620
4797.076835 94.980 174.9424
4831.838432 94.998 175.7725
4866.851925 95.028 176.6466
4902.119140 95.070 177.5569
4937.641916 95.126 178.4934
4973.422105 95.195 179.4445
5009.461572 95.279 -179.6025
5045.762195 95.377 -178.6607
5082.325868 95.488 -177.7433
5119.154496 95.613 -176.8634
5156.250000 95.748 -176.0342
5193.614313 95.895 -175.2686
5231.249383 96.050 -174.5794
5269.157173 96.213 -173.9789
5307.339658 96.381 -173.4785
5345.798829 96.552 -173.0883
5384.536691 96.723 -172.8162
5423.555263 96.892 -172.6681
5462.856580 97.057 -172.6471
5502.442691 97.216 -172.7535
5542.315659 97.366 -172.9850
5582.477563 97.505 -173.3361
5622.930497 97.632 -173.7986
5663.676569 97.746 -174.3616
5704.717904 97.845 -175.0113
5746.056642 97.928 -175.7315
5787.694937 97.996 -176.5035
5829.634960 98.048 -177.3074
5871.878898 98.086 -178.1229
5914.428953 98.111 -178.9300
5957.287343 98.126 -179.7111
6000.456303 98.132 179.5490
6043.938083 98.133 178.8611
6087.734950 98.132 178.2316
6131.849187 98.133 177.6617
6176.283094 98.138 177.1470
6221.038987 98.151 176.6778
6266.119200 98.175 176.2393
6311.526083 98.213 175.8120
6357.262002 98.267 175.3730
6403.329344 98.339 174.8964
6449.730508 98.431 174.3538
6496.467914 98.543 173.7155
6543.543998 98.675 172.9510
6590.961215 98.826 172.0299
6638.722037 98.995 170.9234
6686.828954 99.178 169.6055
6735.284473 99.370 168.0544
6784.091120 99.566 166.2543
6833.251441 99.759 164.1965
6882.767998 99.944 161.8796
6932.643372 100.112 159.3104
6982.880164 100.258 156.5028
7033.480992 100.374 153.4778
7084.448495 100.455 150.2625
7135.785329 100.496 146.8890
7187.494171 100.493 143.3932
7239.577717 100.443 139.8133
7292.038681 100.344 136.1880
7344.879799 100.197 132.5546
7398.103826 100.002 128.9473
7451.713536 99.761 125.3950
7505.711724 99.478 121.9197
7560.101205 99.157 118.5357
7614.884815 98.803 115.2475
7670.065409 98.422 112.0497
7725.645865 98.022 108.9262
7781.629080 97.608 105.8503
7838.017972 97.191 102.7849
7894.815481 96.776 99.6835
7952.024569 96.374 96.4916
8009.648217 95.991 93.1483
8067.689429 95.635 89.5874
8126.151233 95.312 85.7391
8185.036674 95.025 81.5320
8244.348824 94.776 76.8949
8304.090774 94.561 71.7608
8364.265639 94.374 66.0707
8424.876556 94.205 59.7787
8485.926684 94.045 52.8575
8547.419207 93.883 45.3050
8609.357330 93.709 37.1507
8671.744282 93.520 28.4624
8734.583316 93.315 19.3497
8797.877707 93.100 9.9630
8861.630756 92.886 0.4844
8925.845785 92.687 -8.8928
8990.526143 92.520 -17.9905
9055.675202 92.401 -26.6698
9121.296357 92.343 -34.8478
9187.393031 92.355 -42.4988
9253.968668 92.437 -49.6456
9321.026740 92.582 -56.3442
9388.570742 92.776 -62.6679
9456.604196 93.002 -68.6935
9525.130648 93.243 -74.4908
9594.153671 93.480 -80.1168
9663.676863 93.696 -85.6115
9733.703850 93.879 -90.9966
9804.238280 94.016 -96.2777
9875.283832 94.100 -101.4450
9946.844210 94.127 -106.4767
10018.923143 94.092 -111.3429
10091.524390 93.997 -116.0081
10164.651736 93.842 -120.4353
10238.308993 93.632 -124.5890
10312.500000 93.375 -128.4381
10387.228626 93.077 -131.9598
10462.498767 92.750 -135.1436
10538.314345 92.407 -137.9951
10614.679315 92.061 -140.5406
10691.597657 91.726 -142.8303
10769.073381 91.415 -144.9365
10847.110526 91.137 -146.9493
10925.713161 90.895 -148.9645
11004.885382 90.684 -151.0690
11084.631318 90.492 -153.3253
11164.955126 90.302 -155.7595
11245.860993 90.095 -158.3559
11327.353138 89.852 -161.0582
11409.435808 89.557 -163.7767
11492.113283 89.201 -166.3976
11575.389873 88.778 -168.7935
11659.269920 88.287 -170.8320
11743.757796 87.734 -172.3847
11828.857906 87.128 -173.3384
11914.574686 86.481 -173.6123
12000.912606 85.811 -173.1840
12087.876166 85.140 -172.1183
12175.469900 84.491 -170.5869
12263.698373 83.888 -168.8557
12352.566187 83.349 -167.2325
12442.077974 82.884 -165.9921
12532.238400 82.493 -165.3178
12623.052165 82.166 -165.2848
12714.524005 81.887 -165.8813
12806.658687 81.639 -167.0449
12899.461015 81.408 -168.6970
12992.935827 81.185 -170.7650
13087.087996 80.965 -173.1931
13181.922430 80.744 -175.9434
13277.444074 80.523 -178.9906
13373.657907 80.301 177.6869
13470.568945 80.081 174.1152
13568.182241 79.864 170.3354
13666.502883 79.657 166.4171
13765.535996 79.466 162.4822
13865.286744 79.296 158.7603
13965.760328 79.156 155.7272
14066.961984 79.049 154.5344
14168.896989 78.977 158.6984
14271.570658 78.934 -177.9797
14374.988342 78.914 -124.2385
14479.155433 78.907 -101.9759
14584.077362 78.902 -98.8887
14689.759598 78.891 -101.4744
14796.207652 78.867 -106.2709
14903.427072 78.826 -112.1300
15011.423448 78.766 -118.5768
15120.202410 78.683 -125.3888
15229.769630 78.574 -132.4550
15340.130819 78.433 -139.7158
15451.291730 78.253 -147.1323
15563.258160 78.025 -154.6694
15676.035944 77.738 -162.2875
15789.630962 77.385 -169.9385
15904.049137 76.958 -177.5676
16019.296433 76.453 174.8837
16135.378859 75.869 167.4732
16252.302465 75.206 160.2523
16370.073348 74.465 153.2604
16488.697648 73.651 146.5170
16608.181548 72.770 140.0115
16728.531278 71.828 133.6888
16849.753112 70.837 127.4276
16971.853368 69.808 120.9978
17094.838414 68.763 113.9417
17218.714660 67.727 105.1544
17343.488565 66.741 90.7584
17469.166632 65.858 45.5106
17595.755415 65.140 -40.4405
17723.261512 64.645 -64.9710
17851.691571 64.404 -76.9005
17981.052287 64.408 -86.1035
18111.350404 64.605 -94.6103
18242.592715 64.924 -103.1277
18374.786062 65.293 -111.9941
18507.937336 65.655 -121.4009
18642.053479 65.965 -131.4546
18777.141484 66.195 -142.1960
18913.208391 66.330 -153.6050
19050.261296 66.366 -165.5894
19188.307342 66.308 -177.9573
19327.353727 66.170 169.6345
19467.407699 65.977 157.7222
19608.476560 65.756 147.0056
19750.567664 65.544 138.2300
19893.688419 65.376 132.0291
20037.846286 65.283 128.8276
