* Measurement data measured by REW V5.31.3
* Source: EXCL: Headset (USB-C to 3.5mm Headphone Jack Adapter), MICROPHONE (Master Volume), 0, volume: 0.750
* Format: 256k Log Swept Sine, 1 sweep at -12.0 dBFS with no timing reference
* Dated: Apr 7, 2025 4:45:42 PM
* REW Settings:
*  C-weighting compensation: Off
*  Target level: 75.0 dB
* Note: ; 
* Measurement: Satyr 3 (Centered) R4
* Smoothing: 1/6 octave
* Frequency Step: 96 ppo
* Start Frequency: 20.0 Hz
*
* Freq(Hz) SPL(dB) Phase(degrees)
20.187378 79.933 -94.1930
20.333664 79.973 -94.2912
20.481010 80.025 -94.4278
20.629424 80.089 -94.6053
20.778913 80.161 -94.8259
20.929486 80.241 -95.0915
21.081150 80.324 -95.4029
21.233912 80.411 -95.7595
21.387782 80.498 -96.1595
21.542767 80.586 -96.5998
21.698874 80.672 -97.0759
21.856113 80.757 -97.5822
22.014492 80.839 -98.1127
22.174018 80.919 -98.6605
22.334700 80.997 -99.2188
22.496546 81.072 -99.7807
22.659566 81.145 -100.3397
22.823766 81.216 -100.8896
22.989157 81.285 -101.4248
23.155745 81.351 -101.9403
23.323542 81.415 -102.4319
23.492554 81.476 -102.8964
23.662790 81.535 -103.3313
23.834261 81.590 -103.7354
24.006973 81.643 -104.1085
24.180938 81.693 -104.4519
24.356163 81.740 -104.7679
24.532658 81.785 -105.0604
24.710431 81.827 -105.3342
24.889493 81.868 -105.5953
25.069853 81.907 -105.8503
25.251519 81.945 -106.1058
25.434502 81.983 -106.3688
25.618811 82.021 -106.6454
25.804456 82.059 -106.9409
25.991445 82.097 -107.2593
26.179790 82.136 -107.6030
26.369500 82.176 -107.9730
26.560584 82.216 -108.3685
26.753053 82.257 -108.7869
26.946917 82.299 -109.2248
27.142185 82.341 -109.6773
27.338869 82.384 -110.1394
27.536977 82.427 -110.6057
27.736522 82.471 -111.0713
27.937512 82.515 -111.5324
28.139959 82.560 -111.9860
28.343872 82.605 -112.4305
28.549264 82.650 -112.8656
28.756143 82.696 -113.2922
28.964522 82.742 -113.7118
29.174411 82.788 -114.1264
29.385821 82.834 -114.5379
29.598763 82.880 -114.9480
29.813248 82.927 -115.3580
30.029287 82.974 -115.7687
30.246891 83.021 -116.1810
30.466073 83.070 -116.5956
30.686842 83.121 -117.0133
30.909212 83.174 -117.4355
31.133193 83.229 -117.8635
31.358797 83.288 -118.2985
31.586035 83.349 -118.7412
31.814921 83.413 -119.1915
32.045465 83.480 -119.6481
32.277680 83.549 -120.1087
32.511577 83.621 -120.5702
32.747169 83.696 -121.0293
32.984469 83.774 -121.4830
33.223488 83.854 -121.9295
33.464239 83.939 -122.3679
33.706735 84.026 -122.7989
33.950987 84.116 -123.2241
34.197010 84.208 -123.6455
34.444816 84.301 -124.0649
34.694417 84.394 -124.4837
34.945827 84.486 -124.9023
35.199059 84.577 -125.3204
35.454126 84.666 -125.7370
35.711041 84.751 -126.1510
35.969818 84.835 -126.5611
36.230470 84.915 -126.9667
36.493011 84.994 -127.3672
36.757455 85.071 -127.7623
37.023814 85.146 -128.1519
37.292104 85.220 -128.5360
37.562338 85.293 -128.9147
37.834530 85.365 -129.2885
38.108695 85.436 -129.6580
38.384846 85.506 -130.0243
38.662999 85.574 -130.3885
38.943167 85.641 -130.7519
39.225365 85.705 -131.1159
39.509608 85.767 -131.4817
39.795911 85.827 -131.8505
40.084289 85.885 -132.2238
40.374756 85.941 -132.6031
40.667328 85.995 -132.9903
40.962020 86.049 -133.3869
41.258848 86.102 -133.7944
41.557827 86.154 -134.2138
41.858972 86.207 -134.6453
42.162299 86.259 -135.0885
42.467824 86.313 -135.5421
42.775564 86.366 -136.0042
43.085533 86.421 -136.4722
43.397749 86.476 -136.9432
43.712227 86.531 -137.4142
44.028983 86.587 -137.8818
44.348036 86.643 -138.3429
44.669400 86.698 -138.7949
44.993093 86.752 -139.2354
45.319131 86.804 -139.6626
45.647532 86.853 -140.0757
45.978313 86.900 -140.4747
46.311491 86.942 -140.8610
46.647083 86.981 -141.2372
46.985107 87.016 -141.6075
47.325581 87.047 -141.9769
47.668521 87.075 -142.3507
48.013947 87.099 -142.7334
48.361876 87.120 -143.1281
48.712326 87.138 -143.5356
49.065315 87.154 -143.9548
49.420863 87.167 -144.3828
49.778987 87.179 -144.8162
50.139706 87.189 -145.2515
50.503039 87.196 -145.6861
50.869005 87.203 -146.1183
51.237623 87.207 -146.5479
51.608912 87.210 -146.9756
51.982891 87.212 -147.4030
52.359580 87.213 -147.8316
52.739000 87.214 -148.2623
53.121168 87.216 -148.6951
53.506106 87.219 -149.1281
53.893833 87.223 -149.5581
54.284370 87.228 -149.9804
54.677737 87.235 -150.3901
55.073955 87.242 -150.7818
55.473043 87.252 -151.1505
55.875024 87.263 -151.4913
56.279917 87.278 -151.8002
56.687745 87.296 -152.0741
57.098527 87.317 -152.3118
57.512287 87.343 -152.5158
57.929045 87.371 -152.6946
58.348822 87.401 -152.8639
58.771642 87.431 -153.0471
59.197525 87.459 -153.2720
59.626495 87.482 -153.5657
60.058573 87.499 -153.9481
60.493782 87.509 -154.4267
60.932145 87.512 -154.9950
61.373685 87.510 -155.6349
61.818424 87.506 -156.3210
62.266386 87.502 -157.0261
62.717593 87.500 -157.7262
63.172071 87.501 -158.4028
63.629842 87.506 -159.0451
64.090930 87.514 -159.6486
64.555359 87.525 -160.2146
65.023154 87.539 -160.7471
65.494339 87.555 -161.2510
65.968938 87.573 -161.7307
66.446976 87.592 -162.1896
66.928478 87.613 -162.6306
67.413469 87.634 -163.0563
67.901975 87.655 -163.4698
68.394021 87.676 -163.8740
68.889632 87.694 -164.2711
69.388835 87.711 -164.6621
69.891655 87.725 -165.0471
70.398118 87.737 -165.4254
70.908252 87.746 -165.7961
71.422083 87.753 -166.1588
71.939636 87.757 -166.5141
72.460941 87.758 -166.8628
72.986023 87.756 -167.2067
73.514909 87.752 -167.5472
74.047629 87.746 -167.8855
74.584208 87.737 -168.2225
75.124676 87.726 -168.5587
75.669061 87.712 -168.8943
76.217390 87.697 -169.2295
76.769692 87.680 -169.5645
77.325997 87.661 -169.8992
77.886333 87.641 -170.2331
78.450730 87.619 -170.5655
79.019216 87.597 -170.8953
79.591822 87.573 -171.2215
80.168577 87.549 -171.5434
80.749512 87.524 -171.8604
81.334656 87.498 -172.1724
81.924040 87.472 -172.4791
82.517696 87.446 -172.7805
83.115653 87.419 -173.0768
83.717943 87.391 -173.3680
84.324598 87.364 -173.6546
84.935649 87.336 -173.9371
85.551128 87.307 -174.2160
86.171066 87.279 -174.4921
86.795497 87.250 -174.7658
87.424453 87.221 -175.0374
88.057967 87.192 -175.3068
88.696071 87.163 -175.5738
89.338800 87.133 -175.8383
89.986185 87.104 -176.1001
90.638262 87.073 -176.3593
91.295065 87.043 -176.6157
91.956626 87.012 -176.8690
92.622982 86.981 -177.1185
93.294166 86.951 -177.3638
93.970214 86.920 -177.6044
94.651161 86.890 -177.8400
95.337042 86.860 -178.0706
96.027894 86.830 -178.2964
96.723752 86.800 -178.5177
97.424652 86.771 -178.7351
98.130631 86.742 -178.9489
98.841726 86.713 -179.1594
99.557974 86.685 -179.3667
100.279412 86.657 -179.5709
101.006078 86.631 -179.7717
101.738010 86.605 -179.9691
102.475245 86.580 179.8371
103.217823 86.556 179.6465
103.965782 86.533 179.4586
104.719161 86.510 179.2720
105.477999 86.488 179.0847
106.242336 86.466 178.8948
107.012212 86.445 178.7009
107.787666 86.424 178.5029
108.568740 86.403 178.3018
109.355474 86.384 178.0994
110.147909 86.365 177.8975
110.946086 86.347 177.6977
111.750047 86.331 177.5010
112.559834 86.316 177.3077
113.375489 86.301 177.1179
114.197055 86.288 176.9310
115.024574 86.275 176.7469
115.858089 86.262 176.5657
116.697645 86.249 176.3877
117.543284 86.236 176.2133
118.395051 86.222 176.0427
119.252990 86.208 175.8762
120.117147 86.193 175.7138
120.987565 86.177 175.5552
121.864291 86.160 175.3996
122.747370 86.143 175.2458
123.636848 86.124 175.0925
124.532771 86.104 174.9384
125.435187 86.083 174.7824
126.344142 86.062 174.6243
127.259684 86.039 174.4642
128.181860 86.015 174.3024
129.110718 85.989 174.1398
130.046308 85.962 173.9775
130.988677 85.934 173.8165
131.937875 85.904 173.6575
132.893951 85.873 173.5010
133.856956 85.840 173.3477
134.826938 85.806 173.1978
135.803950 85.771 173.0521
136.788041 85.734 172.9117
137.779264 85.695 172.7781
138.777669 85.655 172.6525
139.783309 85.613 172.5366
140.796237 85.569 172.4316
141.816504 85.524 172.3387
142.844165 85.478 172.2583
143.879273 85.430 172.1908
144.921881 85.382 172.1362
145.972045 85.333 172.0940
147.029819 85.283 172.0638
148.095257 85.233 172.0448
149.168417 85.183 172.0364
150.249353 85.132 172.0380
151.338121 85.080 172.0491
152.434780 85.029 172.0689
153.539385 84.976 172.0970
154.651995 84.924 172.1334
155.772667 84.871 172.1785
156.901460 84.819 172.2339
158.038432 84.767 172.3014
159.183644 84.715 172.3835
160.337154 84.664 172.4824
161.499023 84.614 172.5995
162.669312 84.565 172.7352
163.848081 84.518 172.8889
165.035392 84.473 173.0592
166.231306 84.431 173.2444
167.435887 84.391 173.4426
168.649196 84.353 173.6526
169.871298 84.319 173.8731
171.102255 84.287 174.1033
172.342133 84.258 174.3419
173.590995 84.231 174.5871
174.848907 84.208 174.8365
176.115934 84.188 175.0864
177.392143 84.171 175.3328
178.677599 84.159 175.5710
179.972371 84.151 175.7966
181.276525 84.146 176.0059
182.590129 84.146 176.1968
183.913252 84.149 176.3687
185.245964 84.153 176.5222
186.588332 84.159 176.6583
187.940428 84.166 176.7783
189.302322 84.174 176.8827
190.674085 84.180 176.9713
192.055788 84.187 177.0443
193.447503 84.191 177.1014
194.849303 84.195 177.1437
196.261262 84.197 177.1724
197.683452 84.198 177.1893
199.115948 84.197 177.1961
200.558824 84.195 177.1942
202.012156 84.192 177.1846
203.476019 84.188 177.1679
204.950490 84.184 177.1448
206.435646 84.179 177.1159
207.931564 84.173 177.0817
209.438322 84.167 177.0424
210.955998 84.162 176.9980
212.484672 84.155 176.9484
214.024424 84.149 176.8936
215.575333 84.143 176.8341
217.137481 84.137 176.7706
218.710948 84.130 176.7036
220.295818 84.124 176.6337
221.892172 84.118 176.5612
223.500094 84.113 176.4868
225.119668 84.108 176.4117
226.750978 84.104 176.3370
228.394109 84.101 176.2642
230.049147 84.099 176.1941
231.716178 84.097 176.1278
233.395289 84.097 176.0661
235.086567 84.098 176.0100
236.790102 84.099 175.9601
238.505980 84.100 175.9167
240.234293 84.101 175.8801
241.975130 84.103 175.8496
243.728581 84.104 175.8243
245.494739 84.106 175.8032
247.273695 84.108 175.7850
249.065542 84.110 175.7690
250.870374 84.113 175.7543
252.688284 84.115 175.7403
254.519367 84.117 175.7266
256.363720 84.120 175.7129
258.221437 84.122 175.6996
260.092616 84.124 175.6876
261.977354 84.126 175.6775
263.875750 84.127 175.6703
265.787903 84.128 175.6663
267.713911 84.127 175.6656
269.653877 84.126 175.6682
271.607900 84.125 175.6743
273.576083 84.123 175.6841
275.558528 84.121 175.6973
277.555338 84.119 175.7132
279.566619 84.117 175.7309
281.592474 84.115 175.7496
283.633009 84.114 175.7686
285.688331 84.114 175.7878
287.758546 84.114 175.8069
289.843763 84.115 175.8263
291.944090 84.116 175.8461
294.059638 84.118 175.8662
296.190515 84.120 175.8866
298.336833 84.123 175.9070
300.498705 84.127 175.9275
302.676243 84.131 175.9479
304.869559 84.135 175.9686
307.078770 84.140 175.9897
309.303989 84.146 176.0111
311.545334 84.152 176.0329
313.802919 84.159 176.0548
316.076865 84.165 176.0768
318.367288 84.172 176.0990
320.674309 84.179 176.1216
322.998047 84.187 176.1449
325.338624 84.194 176.1689
327.696162 84.201 176.1938
330.070783 84.207 176.2194
332.462612 84.214 176.2459
334.871773 84.220 176.2730
337.298392 84.225 176.3007
339.742595 84.229 176.3286
342.204510 84.232 176.3566
344.684265 84.233 176.3844
347.181989 84.233 176.4122
349.697813 84.232 176.4401
352.231868 84.229 176.4686
354.784285 84.225 176.4980
357.355198 84.220 176.5287
359.944741 84.214 176.5610
362.553049 84.207 176.5947
365.180258 84.200 176.6295
367.826505 84.192 176.6652
370.491927 84.184 176.7013
373.176665 84.176 176.7372
375.880856 84.167 176.7728
378.604644 84.157 176.8079
381.348169 84.147 176.8426
384.111575 84.136 176.8770
386.895006 84.125 176.9109
389.698607 84.113 176.9442
392.522524 84.101 176.9767
395.366904 84.088 177.0076
398.231895 84.075 177.0363
401.117648 84.062 177.0621
404.024312 84.049 177.0842
406.952038 84.034 177.1026
409.900981 84.019 177.1177
412.871292 84.003 177.1304
415.863128 83.984 177.1426
418.876643 83.963 177.1569
421.911996 83.940 177.1768
424.969344 83.914 177.2063
428.048847 83.885 177.2497
431.150666 83.853 177.3110
434.274961 83.820 177.3929
437.421897 83.785 177.4959
440.591636 83.750 177.6176
443.784345 83.715 177.7534
447.000189 83.682 177.8972
450.239337 83.649 178.0425
453.501956 83.618 178.1842
456.788219 83.587 178.3185
460.098294 83.557 178.4434
463.432356 83.528 178.5580
466.790578 83.499 178.6625
470.173135 83.470 178.7579
473.580203 83.442 178.8455
477.011961 83.413 178.9268
480.468586 83.386 179.0037
483.950259 83.358 179.0784
487.457163 83.332 179.1528
490.989478 83.307 179.2285
494.547390 83.283 179.3068
498.131084 83.261 179.3883
501.740748 83.240 179.4731
505.376568 83.221 179.5610
509.038735 83.204 179.6515
512.727439 83.189 179.7438
516.442874 83.176 179.8375
520.185232 83.164 179.9318
523.954708 83.155 -179.9739
527.751500 83.147 -179.8798
531.575805 83.142 -179.7859
535.427822 83.139 -179.6920
539.307753 83.138 -179.5978
543.215800 83.139 -179.5030
547.152165 83.142 -179.4078
551.117055 83.147 -179.3126
555.110677 83.154 -179.2175
559.133237 83.164 -179.1228
563.184947 83.176 -179.0282
567.266018 83.190 -178.9334
571.376661 83.205 -178.8380
575.517092 83.222 -178.7418
579.687526 83.240 -178.6450
583.888181 83.260 -178.5478
588.119275 83.280 -178.4505
592.381030 83.300 -178.3534
596.673667 83.321 -178.2566
600.997410 83.343 -178.1601
605.352485 83.364 -178.0641
609.739119 83.385 -177.9692
614.157540 83.406 -177.8759
618.607979 83.426 -177.7853
623.090667 83.445 -177.6983
627.605839 83.463 -177.6157
632.153730 83.481 -177.5381
636.734576 83.497 -177.4661
641.348617 83.512 -177.4001
645.996094 83.525 -177.3403
650.677248 83.537 -177.2870
655.392323 83.547 -177.2398
660.141566 83.555 -177.1982
664.925224 83.561 -177.1614
669.743546 83.564 -177.1279
674.596784 83.566 -177.0960
679.485191 83.565 -177.0636
684.409020 83.563 -177.0286
689.368530 83.559 -176.9892
694.363979 83.554 -176.9442
699.395626 83.548 -176.8940
704.463736 83.542 -176.8401
709.568570 83.536 -176.7849
714.710396 83.530 -176.7307
719.889483 83.522 -176.6796
725.106099 83.515 -176.6331
730.360516 83.506 -176.5920
735.653010 83.495 -176.5566
740.983855 83.483 -176.5269
746.353329 83.470 -176.5025
751.761713 83.455 -176.4826
757.209288 83.439 -176.4661
762.696339 83.421 -176.4518
768.223151 83.401 -176.4382
773.790013 83.380 -176.4237
779.397214 83.357 -176.4072
785.045047 83.334 -176.3878
790.733808 83.309 -176.3655
796.463791 83.285 -176.3408
802.235296 83.261 -176.3147
808.048623 83.236 -176.2885
813.904077 83.213 -176.2633
819.801961 83.190 -176.2402
825.742584 83.168 -176.2202
831.726255 83.148 -176.2041
837.753287 83.128 -176.1929
843.823992 83.109 -176.1875
849.938689 83.092 -176.1884
856.097695 83.075 -176.1959
862.301332 83.058 -176.2096
868.549922 83.043 -176.2293
874.843793 83.027 -176.2542
881.183272 83.012 -176.2834
887.568689 82.997 -176.3162
894.000378 82.982 -176.3515
900.478673 82.968 -176.3886
907.003913 82.954 -176.4271
913.576437 82.941 -176.4664
920.196588 82.929 -176.5063
926.864712 82.917 -176.5462
933.581156 82.906 -176.5855
940.346270 82.896 -176.6233
947.160407 82.887 -176.6590
954.023921 82.880 -176.6919
960.937172 82.874 -176.7216
967.900519 82.871 -176.7481
974.914325 82.871 -176.7724
981.978956 82.873 -176.7956
989.094780 82.879 -176.8196
996.262169 82.887 -176.8461
1003.481495 82.899 -176.8766
1010.753136 82.913 -176.9123
1018.077470 82.929 -176.9541
1025.454879 82.948 -177.0027
1032.885748 82.968 -177.0586
1040.370463 82.990 -177.1223
1047.909417 83.012 -177.1940
1055.503000 83.035 -177.2732
1063.151610 83.058 -177.3590
1070.855645 83.081 -177.4500
1078.615506 83.102 -177.5444
1086.431599 83.123 -177.6404
1094.304330 83.143 -177.7361
1102.234110 83.161 -177.8304
1110.221353 83.178 -177.9219
1118.266475 83.194 -178.0100
1126.369895 83.208 -178.0940
1134.532035 83.221 -178.1736
1142.753322 83.233 -178.2489
1151.034184 83.244 -178.3200
1159.375052 83.253 -178.3871
1167.776361 83.262 -178.4500
1176.238550 83.270 -178.5084
1184.762060 83.276 -178.5621
1193.347334 83.282 -178.6105
1201.994821 83.286 -178.6533
1210.704971 83.290 -178.6892
1219.478238 83.293 -178.7170
1228.315080 83.295 -178.7350
1237.215957 83.296 -178.7414
1246.181334 83.297 -178.7350
1255.211678 83.297 -178.7148
1264.307459 83.298 -178.6804
1273.469152 83.299 -178.6315
1282.697235 83.301 -178.5683
1291.992188 83.303 -178.4914
1301.354495 83.307 -178.4022
1310.784647 83.311 -178.3018
1320.283132 83.317 -178.1920
1329.850448 83.323 -178.0740
1339.487093 83.331 -177.9492
1349.193569 83.340 -177.8190
1358.970381 83.350 -177.6847
1368.818041 83.361 -177.5472
1378.737061 83.374 -177.4073
1388.727958 83.388 -177.2658
1398.791253 83.403 -177.1233
1408.927471 83.419 -176.9803
1419.137140 83.437 -176.8366
1429.420793 83.456 -176.6918
1439.778965 83.476 -176.5450
1450.212197 83.499 -176.3954
1460.721033 83.522 -176.2419
1471.306019 83.547 -176.0835
1481.967709 83.574 -175.9190
1492.706658 83.602 -175.7482
1503.523426 83.632 -175.5713
1514.418576 83.662 -175.3895
1525.392678 83.693 -175.2038
1536.446302 83.724 -175.0155
1547.580025 83.755 -174.8251
1558.794428 83.783 -174.6324
1570.090095 83.810 -174.4360
1581.467615 83.833 -174.2335
1592.927581 83.853 -174.0216
1604.470591 83.869 -173.7964
1616.097246 83.882 -173.5538
1627.808153 83.890 -173.2903
1639.603922 83.896 -173.0030
1651.485168 83.900 -172.6905
1663.452510 83.903 -172.3530
1675.506573 83.906 -171.9925
1687.647984 83.909 -171.6127
1699.877377 83.914 -171.2190
1712.195390 83.921 -170.8179
1724.602663 83.930 -170.4166
1737.099845 83.942 -170.0220
1749.687587 83.956 -169.6396
1762.366544 83.971 -169.2734
1775.137379 83.987 -168.9250
1788.000756 84.002 -168.5944
1800.957346 84.017 -168.2802
1814.007826 84.032 -167.9799
1827.152874 84.044 -167.6905
1840.393177 84.056 -167.4090
1853.729425 84.065 -167.1330
1867.162312 84.074 -166.8610
1880.692540 84.081 -166.5926
1894.320813 84.088 -166.3284
1908.047843 84.093 -166.0704
1921.874344 84.098 -165.8205
1935.801038 84.101 -165.5810
1949.828650 84.103 -165.3537
1963.957912 84.104 -165.1398
1978.189561 84.103 -164.9399
1992.524338 84.100 -164.7542
2006.962991 84.095 -164.5828
2021.506272 84.088 -164.4254
2036.154940 84.079 -164.2818
2050.909758 84.068 -164.1516
2065.771495 84.055 -164.0344
2080.740927 84.041 -163.9299
2095.818833 84.025 -163.8378
2111.006001 84.008 -163.7579
2126.303220 83.990 -163.6900
2141.711290 83.972 -163.6338
2157.231013 83.952 -163.5887
2172.863198 83.933 -163.5541
2188.608660 83.913 -163.5295
2204.468221 83.894 -163.5146
2220.442706 83.875 -163.5094
2236.532950 83.856 -163.5140
2252.739789 83.838 -163.5287
2269.064070 83.820 -163.5535
2285.506644 83.803 -163.5884
2302.068367 83.787 -163.6333
2318.750104 83.772 -163.6886
2335.552723 83.759 -163.7552
2352.477101 83.747 -163.8345
2369.524119 83.736 -163.9282
2386.694668 83.728 -164.0383
2403.989641 83.720 -164.1669
2421.409941 83.714 -164.3156
2438.956476 83.709 -164.4859
2456.630160 83.705 -164.6787
2474.431915 83.702 -164.8948
2492.362668 83.698 -165.1339
2510.423356 83.694 -165.3950
2528.614918 83.688 -165.6759
2546.938304 83.680 -165.9734
2565.394469 83.670 -166.2826
2583.984375 83.656 -166.5976
2602.708991 83.639 -166.9115
2621.569293 83.619 -167.2168
2640.566265 83.595 -167.5056
2659.700897 83.568 -167.7709
2678.974186 83.539 -168.0064
2698.387137 83.509 -168.2076
2717.940763 83.477 -168.3718
2737.636082 83.446 -168.4980
2757.474121 83.416 -168.5871
2777.455915 83.387 -168.6405
2797.582506 83.359 -168.6605
2817.854942 83.333 -168.6486
2838.274281 83.309 -168.6053
2858.841586 83.285 -168.5301
2879.557931 83.262 -168.4209
2900.424394 83.240 -168.2753
2921.442065 83.219 -168.0901
2942.612039 83.199 -167.8625
2963.935418 83.180 -167.5903
2985.413316 83.162 -167.2718
3007.046852 83.147 -166.9065
3028.837153 83.134 -166.4952
3050.785356 83.125 -166.0401
3072.892604 83.119 -165.5450
3095.160050 83.118 -165.0158
3117.588856 83.121 -164.4602
3140.180190 83.128 -163.8876
3162.935230 83.141 -163.3088
3185.855163 83.159 -162.7350
3208.941182 83.180 -162.1775
3232.194493 83.204 -161.6468
3255.616307 83.231 -161.1524
3279.207844 83.259 -160.7016
3302.970336 83.287 -160.2997
3326.905021 83.313 -159.9491
3351.013146 83.336 -159.6490
3375.295969 83.356 -159.3963
3399.754755 83.371 -159.1857
3424.390779 83.382 -159.0116
3449.205326 83.390 -158.8691
3474.199690 83.395 -158.7553
3499.375173 83.398 -158.6705
3524.733088 83.400 -158.6178
3550.274757 83.403 -158.6030
3576.001511 83.406 -158.6336
3601.914692 83.409 -158.7173
3628.015651 83.413 -158.8607
3654.305748 83.415 -159.0676
3680.786354 83.415 -159.3381
3707.458849 83.411 -159.6684
3734.324624 83.401 -160.0509
3761.385080 83.384 -160.4749
3788.641627 83.360 -160.9277
3816.095686 83.328 -161.3955
3843.748688 83.288 -161.8642
3871.602076 83.240 -162.3204
3899.657300 83.185 -162.7518
3927.915825 83.125 -163.1479
3956.379122 83.061 -163.4999
3985.048676 82.993 -163.8012
4013.925981 82.923 -164.0472
4043.012544 82.853 -164.2357
4072.309879 82.783 -164.3659
4101.819515 82.715 -164.4390
4131.542990 82.648 -164.4569
4161.481854 82.584 -164.4222
4191.637667 82.522 -164.3373
4222.012001 82.463 -164.2047
4252.606441 82.405 -164.0260
4283.422580 82.350 -163.8031
4314.462026 82.296 -163.5375
4345.726396 82.244 -163.2306
4377.217321 82.194 -162.8843
4408.936442 82.145 -162.5008
4440.885413 82.098 -162.0825
4473.065899 82.052 -161.6321
4505.479579 82.008 -161.1523
4538.128141 81.965 -160.6458
4571.013288 81.925 -160.1154
4604.136735 81.887 -159.5641
4637.500207 81.852 -158.9951
4671.105446 81.820 -158.4121
4704.954201 81.792 -157.8188
4739.048239 81.768 -157.2196
4773.389336 81.749 -156.6184
4807.979283 81.736 -156.0193
4842.819883 81.728 -155.4257
4877.912952 81.726 -154.8406
4913.260320 81.731 -154.2663
4948.863830 81.742 -153.7041
4984.725337 81.759 -153.1548
5020.846712 81.783 -152.6180
5057.229836 81.813 -152.0924
5093.876609 81.850 -151.5756
5130.788938 81.894 -151.0643
5167.968750 81.945 -150.5540
5205.417982 82.004 -150.0398
5243.138586 82.072 -149.5159
5281.132530 82.149 -148.9767
5319.401793 82.237 -148.4174
5357.948371 82.337 -147.8342
5396.774274 82.451 -147.2251
5435.881525 82.582 -146.5906
5475.272163 82.731 -145.9335
5514.948243 82.899 -145.2598
5554.911831 83.089 -144.5782
5595.165012 83.302 -143.9006
5635.709884 83.539 -143.2417
5676.548561 83.801 -142.6196
5717.683172 84.088 -142.0553
5759.115861 84.398 -141.5724
5800.848789 84.731 -141.1961
5842.884130 85.084 -140.9529
5885.224077 85.453 -140.8686
5927.870837 85.836 -140.9676
5970.826633 86.227 -141.2711
6014.093704 86.622 -141.7957
6057.674306 87.016 -142.5530
6101.570711 87.403 -143.5488
6145.785208 87.779 -144.7829
6190.320101 88.139 -146.2497
6235.177712 88.479 -147.9381
6280.360380 88.795 -149.8324
6325.870460 89.085 -151.9130
6371.710325 89.346 -154.1575
6417.882365 89.578 -156.5421
6464.388986 89.781 -159.0433
6511.232613 89.954 -161.6390
6558.415689 90.101 -164.3103
6605.940673 90.222 -167.0427
6653.810042 90.320 -169.8259
6702.026292 90.398 -172.6548
6750.591937 90.456 -175.5285
6799.509509 90.498 -178.4498
6848.781558 90.523 178.5764
6898.410653 90.532 175.5438
6948.399380 90.525 172.4460
6998.750346 90.502 169.2780
7049.466176 90.460 166.0364
7100.549514 90.398 162.7200
7152.003023 90.315 159.3300
7203.829385 90.209 155.8694
7256.031302 90.079 152.3435
7308.611496 89.923 148.7582
7361.572708 89.741 145.1205
7414.917698 89.531 141.4373
7468.649249 89.294 137.7156
7522.770160 89.029 133.9616
7577.283253 88.736 130.1805
7632.191371 88.415 126.3760
7687.497376 88.068 122.5501
7743.204151 87.694 118.7025
7799.314600 87.294 114.8303
7855.831649 86.870 110.9279
7912.758244 86.423 106.9865
7970.097352 85.954 102.9935
8027.851962 85.464 98.9318
8086.025087 84.955 94.7795
8144.619758 84.431 90.5081
8203.639030 83.892 86.0817
8263.085980 83.342 81.4552
8322.963708 82.785 76.5740
8383.275334 82.224 71.3716
8444.024002 81.665 65.7700
8505.212881 81.113 59.6785
8566.845160 80.574 52.9946
8628.924051 80.057 45.6070
8691.452792 79.571 37.4070
8754.434642 79.130 28.3092
8817.872884 78.747 18.2900
8881.770826 78.439 7.4375
8946.131799 78.220 -4.0132
9010.959157 78.102 -15.6917
9076.256282 78.091 -27.1777
9142.026576 78.187 -38.1156
9208.273470 78.380 -48.2933
9275.000415 78.658 -57.6529
9342.210891 79.002 -66.2469
9409.908403 79.393 -74.1885
9478.096478 79.813 -81.6110
9546.778672 80.244 -88.6440
9615.958566 80.670 -95.4023
9685.639765 81.079 -101.9801
9755.825904 81.458 -108.4517
9826.520640 81.797 -114.8702
9897.727659 82.087 -121.2709
9969.450674 82.321 -127.6708
10041.693423 82.492 -134.0721
10114.459673 82.596 -140.4640
10187.753217 82.631 -146.8263
10261.577877 82.595 -153.1328
10335.937500 82.489 -159.3547
10410.835964 82.314 -165.4631
10486.277173 82.072 -171.4312
10562.265060 81.768 -177.2336
10638.803587 81.402 177.1531
10715.896743 80.978 171.7513
10793.548548 80.499 166.5820
10871.763050 79.968 161.6637
10950.544327 79.389 157.0109
11029.896485 78.766 152.6321
11109.823662 78.104 148.5281
11190.330024 77.408 144.6895
11271.419768 76.684 141.0971
11353.097122 75.939 137.7219
11435.366344 75.180 134.5247
11518.231722 74.412 131.4570
11601.697577 73.644 128.4608
11685.768261 72.883 125.4695
11770.448155 72.135 122.4090
11855.741674 71.409 119.1988
11941.653265 70.711 115.7534
12028.187408 70.047 111.9833
12115.348612 69.420 107.7936
12203.141422 68.835 103.0827
12291.570415 68.291 97.7383
12380.640201 67.786 91.6334
12470.355424 67.313 84.6210
12560.720760 66.864 76.5309
12651.740920 66.428 67.1722
12743.420650 65.997 56.3561
12835.764729 65.561 43.9667
12928.777972 65.119 30.1014
13022.465227 64.670 15.2385
13116.831378 64.224 0.2485
13211.881345 63.792 -13.8942
13307.620084 63.392 -26.5097
13404.052584 63.042 -37.3668
13501.183875 62.759 -46.5661
13599.019019 62.556 -54.3558
13697.563116 62.441 -61.0089
13796.821305 62.415 -66.7694
13896.798760 62.473 -71.8398
13997.500692 62.607 -76.3839
14098.932352 62.808 -80.5359
14201.099028 63.066 -84.4086
14304.006046 63.372 -88.0989
14407.658770 63.715 -91.6919
14512.062604 64.089 -95.2624
14617.222992 64.483 -98.8755
14723.145416 64.890 -102.5868
14829.835397 65.303 -106.4427
14937.298497 65.713 -110.4811
15045.540320 66.114 -114.7308
15154.566507 66.500 -119.2119
15264.382743 66.866 -123.9351
15374.994752 67.208 -128.9033
15486.408302 67.524 -134.1127
15598.629201 67.812 -139.5568
15711.663298 68.075 -145.2300
15825.516487 68.311 -151.1304
15940.194703 68.522 -157.2612
16055.703925 68.704 -163.6289
16172.050174 68.854 -170.2390
16289.239516 68.969 -177.0936
16407.278061 69.044 175.8119
16526.171961 69.074 168.4885
16645.927415 69.058 160.9521
16766.550667 68.993 153.2198
16888.048005 68.882 145.3086
17010.425762 68.723 137.2336
17133.690320 68.520 129.0074
17257.848103 68.273 120.6392
17382.905584 67.985 112.1368
17508.869284 67.655 103.5066
17635.745768 67.284 94.7563
17763.541652 66.873 85.8950
17892.263597 66.423 76.9302
18021.918315 65.936 67.8627
18152.512564 65.418 58.6787
18284.053153 64.880 49.3396
18416.546939 64.336 39.7701
18550.000830 63.803 29.8447
18684.421783 63.301 19.3778
18819.816805 62.849 8.1212
18956.192956 62.462 -4.2135
19093.557344 62.146 -17.8623
19231.917131 61.901 -32.7817
19371.279531 61.718 -48.3070
19511.651807 61.585 -63.0312
19653.041280 61.494 -75.2903
19795.455318 61.435 -83.8783
19938.901348 61.406 -88.2474
